"Time (s)","Linear Acceleration x (m/s^2)","Linear Acceleration y (m/s^2)","Linear Acceleration z (m/s^2)","Absolute acceleration (m/s^2)"
1.779249986E-3,-5.382975966E-2,1.877166724E-1,-2.935682327E-1,3.525868678E-1
1.183124993E-2,1.287439942E-1,3.319540340E-1,-4.759732944E-1,5.944064886E-1
2.188324998E-2,2.338748851E-1,3.367423189E-1,-5.289970154E-1,6.692762460E-1
3.193524992E-2,2.880370590E-1,2.171910247E-1,-4.563839525E-1,5.817418677E-1
4.198724998E-2,3.045136356E-1,3.600656927E-2,-4.192740136E-1,5.194378941E-1
5.203924992E-2,-2.907715094E-1,-8.652066529E-2,-3.599399775E-1,4.707341964E-1
6.209124997E-2,-3.352202886E-1,1.916755298E-1,-2.328700411E-1,4.509330401E-1
7.214324991E-2,-1.558680582E-1,2.460943964E-1,-6.546811616E-1,7.165645309E-1
8.219524997E-2,-1.543460280E-2,8.128214478E-2,-9.945622659E-1,9.979975525E-1
9.224724991E-2,1.524488989E-1,-4.659353793E-3,-1.073233629E0,1.084016973E0
1.022992500E-1,3.104967991E-1,-1.217127174E-1,-9.836443448E-1,1.038642597E0
1.123522499E-1,3.573654485E-1,-2.471258453E-1,-8.449115521E-1,9.500825111E-1
1.224042500E-1,3.521248814E-1,-3.498052910E-1,-7.752565956E-1,9.205316197E-1
1.324562499E-1,3.408672372E-1,-3.915748760E-1,-7.163850743E-1,8.847196909E-1
1.425082500E-1,2.754535586E-1,-4.227797118E-1,-6.829302299E-1,8.491236933E-1
1.525602499E-1,1.821065614E-1,-4.131554872E-1,-6.387223560E-1,7.821933931E-1
1.626122500E-1,1.205184236E-1,-4.449008980E-1,-7.476717710E-1,8.783362549E-1
1.726642500E-1,6.598378211E-2,-5.306286809E-1,-9.142542672E-1,1.059141880E0
1.827162500E-1,-1.420376390E-2,-5.730072534E-1,-9.910445809E-1,1.144861747E0
1.927682500E-1,-3.590628952E-2,-5.557375020E-1,-1.047049212E0,1.185936544E0
2.028202499E-1,6.148142606E-2,-6.085068691E-1,-1.199025949E0,1.346002898E0
2.128722500E-1,6.137237549E-2,-5.207109261E-1,-1.497450294E0,1.586588737E0
2.229242499E-1,-7.413772434E-2,-4.046036419E-1,-1.599763119E0,1.651799790E0
2.329772500E-1,-2.378363737E-1,-3.740753290E-1,-1.633776373E0,1.692844862E0
2.430292499E-1,-3.038686877E-1,-4.244716036E-1,-1.585708167E0,1.669425863E0
2.530812500E-1,-2.329495633E-1,-4.323179823E-1,-1.192758318E0,1.289897958E0
2.631332499E-1,-5.087948853E-1,-4.666051778E-1,-1.350318561E0,1.516559541E0
2.731852500E-1,-4.917177996E-1,-2.588769946E-1,-2.077633250E0,2.150665854E0
2.832372499E-1,-4.958102658E-1,-1.304718465E-1,-2.342973465E0,2.398411011E0
2.932892500E-1,-4.193052962E-1,-2.819705728E-1,-2.706511234E0,2.753275757E0
3.033412499E-1,-2.497886673E-1,-5.782802725E-1,-2.905180911E0,2.972688779E0
3.133932500E-1,2.912343165E-1,-1.011400493E0,-3.132658650E0,3.304738810E0
3.234452499E-1,1.044939245E0,-1.523188860E0,-3.512254043E0,3.968366262E0
3.334972917E-1,1.344077827E0,-2.153602323E0,-3.837100786E0,4.600857595E0
3.435492916E-1,1.542798960E0,-2.612921285E0,-4.071889299E0,5.078175729E0
3.536022917E-1,2.127021173E0,-2.758581567E0,-4.244220777E0,5.490664926E0
3.636542916E-1,2.205189675E0,-2.766225339E0,-3.536757969E0,5.002351553E0
3.737062917E-1,2.888358471E0,-3.152466385E0,-4.166972626E0,5.970286412E0
3.837582916E-1,3.132417160E0,-4.252679359E0,-5.062790623E0,7.316363023E0
3.938102917E-1,3.447816557E0,-4.778323874E0,-5.651738555E0,8.164677994E0
4.038622916E-1,4.095806749E0,-5.290363086E0,-6.068227540E0,9.032550027E0
4.139142917E-1,3.688494385E0,-5.758280672E0,-5.845372610E0,8.996175191E0
4.239662916E-1,2.907767134E0,-5.295681714E0,-4.210373000E0,7.363870947E0
4.340182916E-1,3.370454385E0,-5.270118856E0,-2.497276808E0,6.735763281E0
4.440702916E-1,2.311128359E0,-5.478003160E0,-1.265768115E0,6.078815825E0
4.541222916E-1,6.239072657E-1,-5.060504361E0,3.142204522E-1,5.108492846E0
4.641742916E-1,-3.542430353E-1,-4.644860884E0,1.914659071E0,5.036480926E0
4.742262916E-1,-1.500786130E0,-4.182528851E0,3.123368593E0,5.431513415E0
4.842792916E-1,-2.241612566E0,-3.787194216E0,3.465163491E0,5.601341352E0
4.943312916E-1,-2.690317955E0,-3.777147237E0,3.472182489E0,5.793160035E0
5.043832916E-1,-2.846967201E0,-3.722758192E0,3.475356942E0,5.834574250E0
5.144352916E-1,-2.868481447E0,-3.551211702E0,3.606264406E0,5.817596869E0
5.244872916E-1,-3.486771292E0,-3.161195693E0,3.883041190E0,6.101535965E0
5.345392916E-1,-4.228750799E0,-2.416908145E0,3.965456525E0,6.280813940E0
5.445912916E-1,-5.302209545E0,-1.814649318E0,4.283761404E0,7.053863478E0
5.546432916E-1,-6.283326724E0,-1.362881450E0,4.643472755E0,7.930919227E0
5.646952916E-1,-6.578167310E0,-6.594253001E-1,3.995852691E0,7.724892596E0
5.747472916E-1,-8.234494640E0,-4.871039079E-1,1.832719699E0,8.450031579E0
5.847992917E-1,-9.186930640E0,-1.124235675E0,3.577892547E0,9.922948933E0
5.948512916E-1,-7.034415607E0,-3.476549774E-1,5.398051257E0,8.873715360E0
6.049042916E-1,-4.396393980E0,2.511535536E-1,4.667403070E0,6.416853555E0
6.149562916E-1,-3.440939646E0,6.904810318E-1,3.489496095E0,4.949082006E0
6.250082917E-1,-4.512453609E0,3.763314772E-1,2.571132404E0,5.207166676E0
6.350602916E-1,-4.937254411E0,-1.306852698E-4,1.249354103E0,5.092874121E0
6.451122917E-1,-4.845677074E0,5.282781002E-1,5.721668623E-2,4.874724382E0
6.551642916E-1,-4.709752699E0,1.095263306E0,-3.349268315E-1,4.847014357E0
6.652162917E-1,-4.706339094E0,1.448469630E0,-7.617425108E-1,4.982764653E0
6.752682916E-1,-5.054867646E0,1.880815971E0,-1.143436323E0,5.513311370E0
6.853202917E-1,-5.627463255E0,2.382224362E0,-1.946488974E0,6.413435501E0
6.953722916E-1,-6.070521403E0,2.483269803E0,-2.054620948E0,6.873087098E0
7.054242917E-1,-6.820201108E0,3.178477139E0,-1.197336250E0,7.619151801E0
7.154772916E-1,-7.903381435E0,4.096319550E0,-1.642063193E0,9.052051894E0
7.255292917E-1,-7.780935477E0,3.537440924E0,-1.560019010E0,8.688504158E0
7.355812916E-1,-5.302577335E0,2.108540170E0,8.866900541E-1,5.774901497E0
7.456332917E-1,-1.666499730E0,7.877287066E-1,6.097681720E0,6.370200956E0
7.556852916E-1,-1.750751091E0,4.213825196E-1,5.146691735E0,5.452625829E0
7.657372917E-1,-2.766841051E0,-6.703060913E-1,9.310787532E-1,2.995267484E0
7.757892916E-1,-1.911082329E0,-3.499675512E-1,-1.292232905E0,2.333362131E0
7.858412917E-1,-9.137133998E-1,7.172475386E-1,-3.493845838E0,3.681884701E0
7.958932916E-1,-8.047160375E-1,8.175395662E-1,-5.653689187E0,5.768894197E0
8.059452916E-1,-1.343534036E0,1.320096057E0,-6.712189586E0,6.971457979E0
8.159972916E-1,-2.343390371E0,2.034067401E0,-5.525758540E0,6.337421878E0
8.260492916E-1,-2.948540938E0,2.313275456E0,-3.169881440E0,4.908491148E0
8.361022916E-1,-2.806102765E0,2.230015199E0,-1.575552869E0,3.915296586E0
8.461542916E-1,-2.289394843E0,1.899721774E0,-7.186536478E-1,3.060512152E0
8.562062916E-1,-1.845818632E0,1.424774666E0,-1.030703321E-2,2.331766606E0
8.662582916E-1,-1.221303840E0,1.427971339E0,3.087708472E-1,1.904212344E0
8.763102916E-1,-8.960343432E-1,1.413729275E0,5.016968040E-1,1.747343038E0
8.863622916E-1,-9.101775885E-1,7.753361177E-1,4.064263652E-1,1.262834799E0
8.964142916E-1,-4.505244577E-1,4.420851713E-1,-1.648183912E-2,6.314136811E-1
9.064662916E-1,-1.056305355E-1,4.376594138E-1,-3.612424448E-1,5.772345073E-1
9.165182916E-1,-3.854741836E-1,5.656467783E-1,-5.309675270E-1,8.662985275E-1
9.265702916E-1,-1.576631534E0,6.093120307E-1,2.178345108E-1,1.704253508E0
9.366222916E-1,-2.838376472E0,6.506799120E-1,2.541328561E0,3.864985925E0
9.466742916E-1,-3.568374449E0,6.445444286E-1,4.854533266E0,6.059309116E0
9.567272916E-1,-2.966149828E0,8.209093165E-1,2.823925079E0,4.176899539E0
9.667792916E-1,-1.816162723E-1,1.594070270E0,-7.383322474E0,7.555626728E0
9.768312916E-1,9.251528925E-1,2.645844033E0,-6.049688943E0,6.667468397E0
9.868832916E-1,3.451552927E-2,2.061369220E0,-2.305934277E0,3.093180770E0
9.969352917E-1,-1.242330428E0,1.581209904E0,-1.225413556E0,2.354835033E0
1.006987292E0,-1.180430049E-1,2.100224553E0,-6.304333431E-1,2.195978944E0
1.017039292E0,1.193086932E0,1.927146969E0,-8.402989760E-1,2.417323776E0
1.027091292E0,1.993167297E0,1.308929629E0,-1.131687367E0,2.639456183E0
1.037143292E0,2.892271428E0,1.151397454E0,-9.407965332E-1,3.252083675E0
1.047195292E0,2.529504322E0,1.313318549E0,-1.074305862E0,3.045871109E0
1.057247292E0,2.156416880E0,1.925112723E0,-1.595719039E0,3.301895214E0
1.067299292E0,1.867533436E0,3.311924926E0,-1.922489224E0,4.260574218E0
1.077352292E0,1.442494068E0,3.604758748E0,-2.679155036E0,4.717302881E0
1.087404292E0,-1.532527156E0,4.946785957E0,-7.904311435E-1,5.238712836E0
1.097456292E0,-3.331068710E0,5.603127143E0,1.013601677E-1,6.519304136E0
1.107508292E0,-1.456449033E0,3.861493031E0,-5.119148134E-1,4.158657114E0
1.117560292E0,-4.246131063E-1,2.214875003E0,3.732792306E-1,2.285892594E0
1.127612292E0,-2.584586263E-2,1.076998359E0,1.332640089E0,1.713628629E0
1.137664292E0,-1.732395512E-1,8.370029005E-1,2.247700102E0,2.404733155E0
1.147716292E0,-1.695733470E0,1.701283354E0,2.355508726E0,3.364267886E0
1.157768292E0,-3.043512585E0,2.147988411E0,4.238501616E0,5.642846712E0
1.167820292E0,-1.213467987E0,-8.671260014E-1,5.042813026E0,5.258742746E0
1.177872292E0,3.089892699E0,-4.195524873E0,1.553523923E0,5.437214584E0
1.187925292E0,4.716629609E0,-4.381388855E0,4.234149752E-1,6.451545815E0
1.197977292E0,3.607361929E0,-3.535578001E0,1.121274353E0,5.174034022E0
1.208029292E0,2.018423175E0,-3.317914521E0,6.544273925E-1,3.938383437E0
1.218081292E0,1.630428842E0,-4.041500442E0,-3.198335599E-4,4.357983953E0
1.228133292E0,1.745645303E0,-3.896811675E0,-7.064915854E-1,4.327995970E0
1.238185292E0,1.215469489E0,-3.919422858E0,-1.317074801E0,4.309747980E0
1.248237292E0,9.187490219E-1,-3.026850359E0,-1.464755588E0,3.485890387E0
1.258289292E0,6.975389135E-1,-2.010077737E0,-1.415884559E0,2.555719493E0
1.268341292E0,7.910195196E-1,-1.030163038E0,-1.404489505E0,1.912992038E0
1.278393292E0,1.029134513E0,-7.050344592E-1,-1.211771125E0,1.739132167E0
1.288445292E0,1.307133365E0,-5.324316698E-1,-8.143124878E-1,1.629474131E0
1.298497292E0,1.479656632E0,7.792177919E-1,-3.017408860E-1,1.699297407E0
1.308549292E0,1.529086069E0,2.051689155E0,-2.825620186E-1,2.574368639E0
1.318602292E0,1.635418856E0,3.578446278E0,-5.534330777E-1,3.973180183E0
1.328654292E0,1.885748683E0,4.675348851E0,-1.148333513E0,5.170454992E0
1.338706625E0,2.748580781E0,5.083316104E0,-1.490691497E0,5.967994643E0
1.348758625E0,2.947487855E0,4.927748592E0,-7.250781298E-1,5.787584050E0
1.358810625E0,1.953815535E0,4.794984637E0,2.175854194E-1,5.182336947E0
1.368862625E0,1.206427354E0,4.109597408E0,8.657329023E-1,4.369639719E0
1.378914625E0,3.348677015E-1,3.133961409E0,1.061845007E0,3.325863093E0
1.388966625E0,-6.018591696E-1,2.083425502E0,9.687140644E-1,2.375142779E0
1.399018625E0,-1.479490571E0,5.397763574E-1,6.551290584E-1,1.705709515E0
1.409070625E0,-2.713743655E0,-2.022664161E0,-5.236859894E-1,3.424882764E0
1.419122625E0,-3.986174964E0,-2.960816583E0,2.022467694E0,5.361567053E0
1.429175625E0,-3.707377383E0,-1.292060997E0,4.623579358E0,6.065604237E0
1.439227625E0,-2.188978854E0,-7.451136142E-1,4.814913118E0,5.341367901E0
1.449279625E0,-7.519607037E-1,-1.187532662E0,5.054300466E0,5.246106358E0
1.459331625E0,1.234019780E0,-8.903613746E-2,5.980704077E0,6.107336041E0
1.469383625E0,2.255634774E0,7.893893158E-1,5.167674469E0,5.693494809E0
1.479435625E0,1.268915963E0,1.502340905E0,3.061116797E0,3.638352919E0
1.489487625E0,6.773285973E-1,2.040355496E0,1.711771213E0,2.748087565E0
1.499539625E0,8.191855574E-1,2.389704412E0,5.129996181E-1,2.577774382E0
1.509591625E0,8.515706536E-1,2.810036187E0,-3.122857547E-1,2.952795005E0
1.519643625E0,8.946956232E-1,3.178104964E0,2.331050992E-1,3.309859424E0
1.529695625E0,9.203651923E-1,4.539170122E0,-4.466184445E-1,4.653021118E0
1.539747625E0,1.673779806E0,4.684413205E0,-1.408955609E0,5.170147176E0
1.549800625E0,1.974298039E0,5.252386590E0,-4.388908009E-1,5.628325042E0
1.559852625E0,1.991926225E0,5.906302936E0,4.131578261E-1,6.246829904E0
1.569904625E0,2.320695865E0,6.179091334E0,8.441555071E-1,6.654276635E0
1.579956625E0,2.551172349E0,6.168071086E0,9.298130503E-1,6.739297707E0
1.590008625E0,2.745629984E0,5.812364493E0,8.924995552E-1,6.489886013E0
1.600060625E0,3.031349791E0,5.434025082E0,1.011679990E0,6.304062702E0
1.610112625E0,3.334701585E0,4.903570356E0,1.029891728E0,6.018796713E0
1.620164625E0,3.745907026E0,4.027815326E0,1.182939966E0,5.626229884E0
1.630216625E0,4.034180605E0,2.985747941E0,1.546966563E0,5.251895797E0
1.640268625E0,3.038711728E0,-4.270860107E0,1.650916901E0,5.495410961E0
1.650320625E0,-2.020807085E0,-1.463869617E1,3.351593606E0,1.515283032E1
1.660372625E0,-5.670142082E0,-1.997062010E1,6.352009873E0,2.171000248E1
1.670425625E0,-4.594211717E0,-2.424337704E1,7.372655398E0,2.575275052E1
1.680477625E0,-8.279093108E-1,-2.407543098E1,6.327743928E0,2.490686961E1
1.690529625E0,3.361321034E0,-1.898309554E1,3.927316892E0,1.967435421E1
1.700581625E0,5.058256692E0,-1.106584159E1,2.654511653E-1,1.217001541E1
1.710633625E0,4.594544424E0,-3.227420965E0,-1.773187150E-1,5.617608608E0
1.720685625E0,3.827005568E0,1.670958817E-1,-6.781089082E-2,3.831251880E0
1.730737625E0,2.548509819E0,2.560018601E0,-3.144760632E0,4.789375426E0
1.740789625E0,1.266390843E0,4.330108774E0,-5.298515275E0,6.959012277E0
1.750841625E0,5.728926480E-2,4.247522115E0,-3.327210717E0,5.395837037E0
1.760893625E0,-1.255278794E0,3.518103597E0,-2.373330600E0,4.425548092E0
1.770945625E0,-1.834211324E0,2.157912598E0,-1.430579197E0,3.172928426E0
1.780998625E0,-1.601004191E0,5.958985180E-1,-7.389255059E-1,1.861268483E0
1.791050625E0,-1.641829158E0,1.712380493E-1,4.258585632E-2,1.651284049E0
1.801102625E0,-1.646046462E0,-3.369867325E-2,9.756452076E-1,1.913762819E0
1.811154625E0,-1.435150258E0,-1.748112828E-1,1.510014791E0,2.090540580E0
1.821206625E0,-1.068390965E0,1.298362541E-1,1.439848642E0,1.797632003E0
1.831258625E0,-9.070750558E-1,1.513662869E-1,9.599689686E-1,1.329374789E0
1.841310625E0,1.038430417E-1,1.612556827E-1,1.354544343E0,1.368055975E0
1.851362625E0,1.361677362E0,1.423510498E-1,1.216365136E0,1.831385596E0
1.861414625E0,1.445836629E0,-3.880785334E-1,5.258857119E-1,1.586696029E0
1.871466625E0,9.487016764E-1,-1.153751543E0,8.301993728E-2,1.496017982E0
1.881518625E0,6.589525527E-1,-1.390540388E0,7.157167375E-2,1.540436153E0
1.891570625E0,7.306341541E-1,-1.253332549E0,9.261302546E-2,1.453700766E0
1.901622625E0,7.930490881E-1,-7.900582373E-1,-1.405492303E-1,1.128216717E0
1.911675625E0,7.505857310E-1,-2.623218817E-1,-3.456197079E-1,8.669744469E-1
1.921727625E0,7.113631931E-1,3.620478988E-2,-5.151312205E-1,8.790384256E-1
1.931779625E0,4.942092982E-1,1.658305442E-1,-6.399281980E-1,8.253791241E-1
1.941831625E0,1.734009343E-1,1.738921005E-1,-6.250147283E-1,6.715279274E-1
1.951883625E0,-6.185360134E-2,1.650294757E-1,-3.934569485E-1,4.311252326E-1
1.961935625E0,-3.439577830E-1,1.563978159E-1,-4.924188808E-2,3.810406761E-1
1.971987625E0,-5.756785539E-1,1.853263307E-1,2.551670824E-1,6.564007055E-1
1.982039625E0,-7.490271556E-1,2.275022972E-1,4.136991321E-1,8.854072210E-1
1.992091625E0,-8.969967949E-1,3.082558537E-1,3.712164791E-1,1.018541406E0
2.002143625E0,-1.002457469E0,3.903811669E-1,1.461568563E-1,1.085670419E0
2.012195625E0,-1.050381541E0,5.037031299E-1,-8.048049152E-2,1.167688029E0
2.022248625E0,-1.072051614E0,5.763062525E-1,-2.436183929E-1,1.241278970E0
2.032300625E0,-1.052353222E0,6.467786497E-1,-3.734553780E-1,1.290441337E0
2.042352625E0,-9.947107852E-1,6.921583056E-1,-4.030457975E-1,1.277097718E0
2.052404625E0,-8.945254692E-1,6.698821682E-1,-2.978823084E-1,1.156568979E0
2.062456625E0,-8.158254549E-1,5.978029561E-1,-2.061663920E-1,1.032203530E0
2.072508625E0,-6.825434366E-1,4.965350282E-1,-1.052886195E-1,8.505870152E-1
2.082560625E0,-5.378520387E-1,3.720577472E-1,1.293623373E-2,6.541247045E-1
2.092612625E0,-3.647285548E-1,2.872970939E-1,1.034128328E-1,4.756687427E-1
2.102664625E0,-1.857376823E-1,1.757281262E-1,1.611989647E-1,3.022647303E-1
2.112716625E0,-4.347492546E-2,5.832129836E-2,1.424576153E-1,1.599550410E-1
2.122768625E0,9.636182159E-2,-6.154545307E-2,6.733580455E-2,1.326934589E-1
2.132820625E0,2.239050901E-1,-1.605002224E-1,-3.648852602E-2,2.778942664E-1
2.142872625E0,3.648042762E-1,-2.280858493E-1,-1.179570508E-1,4.461156581E-1
2.152925625E0,4.900650841E-1,-2.791601086E-1,-1.809888661E-1,5.923268713E-1
2.162977625E0,5.648603278E-1,-3.060105228E-1,-2.113078487E-1,6.762844350E-1
2.173029625E0,5.838664100E-1,-3.370662546E-1,-2.240407455E-1,7.104279698E-1
2.183081625E0,5.413957438E-1,-3.284147143E-1,-1.629314947E-1,6.538442077E-1
2.193133625E0,4.842707857E-1,-2.799541605E-1,-8.148621261E-2,5.652720838E-1
2.203185625E0,4.313841820E-1,-2.097793865E-1,2.362143561E-2,4.802683372E-1
2.213237625E0,3.895710352E-1,-1.479561907E-1,1.344187170E-1,4.378641540E-1
2.223289625E0,3.440647870E-1,-1.193878645E-1,2.355860728E-1,4.337451297E-1
2.233341625E0,3.370881817E-1,-1.040395081E-1,2.929671389E-1,4.585655961E-1
2.243393625E0,3.137060434E-1,-4.484346628E-2,3.390076764E-1,4.640567021E-1
2.253445625E0,3.016794902E-1,4.297703505E-3,3.479011452E-1,4.605042800E-1
2.263497625E0,2.551265904E-1,8.628736138E-3,3.085410516E-1,4.004517608E-1
2.273550625E0,1.745461115E-1,-2.207791686E-2,2.551713216E-1,3.099454514E-1
2.283602625E0,1.200585401E-1,-3.269938409E-2,1.806503123E-1,2.193577856E-1
2.293654625E0,7.874913096E-2,-4.828806102E-2,1.223956722E-1,1.533423067E-1
2.303706625E0,9.440358907E-2,-5.524040043E-2,5.918960989E-2,1.243661907E-1
2.313758625E0,9.781924009E-2,-5.995267153E-2,8.243258446E-3,1.150255531E-1
2.323810625E0,1.023394302E-1,-6.504325747E-2,-2.192018822E-2,1.232253178E-1
2.333863042E0,1.335983527E-1,-4.353368998E-2,-2.482026100E-2,1.426875865E-1
2.343915042E0,1.737909436E-1,-1.242299438E-2,-8.644085079E-3,1.744486832E-1
2.353967042E0,2.222810259E-1,-3.327065706E-3,2.903975800E-2,2.241946284E-1
2.364019042E0,1.918901226E-1,-3.250876486E-2,4.306372002E-2,1.993316907E-1
2.374071042E0,1.525892320E-1,-7.012916565E-2,6.431864128E-2,1.798289777E-1
2.384123042E0,1.212323686E-1,-7.526126683E-2,7.141029060E-2,1.595649557E-1
2.394176042E0,1.164174789E-1,-4.793898225E-2,5.707876503E-2,1.382358884E-1
2.404228042E0,9.876268834E-2,-4.119363427E-3,8.100630239E-2,1.278008560E-1
2.414280042E0,7.002420813E-2,4.128952861E-2,7.520908043E-2,1.107457479E-1
2.424332042E0,1.534017026E-2,4.802084327E-2,3.786364496E-2,6.304742518E-2
2.434384042E0,-3.402085483E-2,6.462635100E-2,-1.958174050E-2,7.561367844E-2
2.444436042E0,-5.584880322E-2,8.249017954E-2,-5.877489612E-2,1.156641991E-1
2.454488042E0,-6.835453570E-2,7.424268186E-2,-7.850705624E-2,1.278580316E-1
2.464540042E0,-7.616203040E-2,4.062353075E-2,-6.724941194E-2,1.094230759E-1
2.474592042E0,-6.108732373E-2,4.309339464E-2,-2.169273153E-2,7.784135394E-2
2.484644042E0,2.184227407E-3,3.948917091E-2,2.919149324E-2,4.915596349E-2
2.494696042E0,6.471815228E-2,1.481509030E-2,4.113793954E-2,7.810413693E-2
2.504748042E0,1.156988561E-1,-2.695098639E-2,5.077897489E-2,1.291939831E-1
2.514801042E0,1.440023035E-1,-8.521556675E-2,6.860187292E-2,1.808440577E-1
2.524853042E0,1.609931427E-1,-1.271178836E-1,2.595871389E-2,2.067646081E-1
2.534905042E0,1.689775157E-1,-1.199924666E-1,2.998218298E-2,2.094051674E-1
2.544957042E0,1.794127491E-1,-1.088353944E-1,1.927753910E-2,2.107266028E-1
2.555009042E0,1.654311794E-1,-8.380112529E-2,1.526298702E-2,1.860727344E-1
2.565061042E0,1.396844271E-1,-7.302996933E-2,1.037252203E-2,1.579642517E-1
2.575113042E0,1.329662687E-1,-5.883936167E-2,-1.816919938E-2,1.465340196E-1
2.585165042E0,1.498232067E-1,-6.124958396E-2,-1.965658486E-2,1.630487231E-1
2.595217042E0,1.469633335E-1,-5.626307845E-2,1.467899635E-2,1.580481835E-1
2.605269042E0,1.484567124E-1,-2.885951757E-2,2.026352584E-2,1.525872789E-1
2.615321042E0,1.409559041E-1,-3.466112494E-2,2.108272076E-2,1.466780202E-1
2.625373042E0,8.320792526E-2,-2.969742358E-2,1.103077233E-2,8.903467713E-2
2.635425042E0,4.451982290E-2,-1.674817979E-2,3.317841724E-2,5.799416805E-2
2.645478042E0,3.103994429E-3,1.333282113E-2,3.139311612E-2,3.424801659E-2
2.655530042E0,-2.154055774E-2,1.510452747E-2,3.778017595E-2,4.603785478E-2
2.665582042E0,-1.531882793E-2,2.796080053E-2,4.562363103E-2,5.565957747E-2
2.675634042E0,-1.683998108E-4,3.507452309E-2,4.206004545E-2,5.476584658E-2
2.685686042E0,1.423855484E-2,4.059487939E-2,7.433024392E-2,8.588169675E-2
2.695738042E0,5.308628619E-2,3.548675179E-2,8.072125062E-2,1.029241645E-1
2.705790042E0,7.024874121E-2,4.057850718E-2,5.320922390E-2,9.701918570E-2
2.715842042E0,8.669900537E-2,1.061795890E-2,4.032532275E-2,9.620597818E-2
2.725894042E0,8.322722107E-2,1.352344036E-2,4.527031302E-2,9.570295193E-2
2.735946042E0,7.935519487E-2,3.105631649E-2,5.342557088E-2,1.005784936E-1
2.745998042E0,7.024494052E-2,4.719814003E-2,8.529742777E-2,1.201568445E-1
2.756050042E0,3.432812601E-2,4.040192127E-2,8.208438277E-2,9.771684283E-2
2.766103042E0,1.583016694E-2,3.031956732E-2,5.330365643E-2,6.333364143E-2
2.776155042E0,-5.774417818E-3,1.537232995E-3,3.020832404E-2,3.079366539E-2
2.786207042E0,-3.546628654E-3,4.180759192E-4,2.711251572E-2,2.734669762E-2
2.796259042E0,-3.069788218E-5,1.388713717E-3,1.058287561E-2,1.067364625E-2
2.806311042E0,2.765996128E-2,-5.779972672E-3,2.200745791E-3,2.834298545E-2
2.816363042E0,2.343271673E-2,-1.756094277E-2,8.093715906E-3,3.038070377E-2
2.826415042E0,5.010479093E-3,-2.607098043E-2,1.019622847E-2,2.843877628E-2
2.836467042E0,1.956478357E-3,-5.120582163E-2,1.616404295E-2,5.373211573E-2
2.846519042E0,9.713394642E-3,-4.714551508E-2,2.927993238E-2,5.634149508E-2
2.856571042E0,1.599242717E-2,-2.516173840E-2,2.287094548E-2,3.757593583E-2
2.866623042E0,6.178460419E-3,1.399823427E-3,-2.154552788E-3,6.691410650E-3
2.876675042E0,1.077729553E-2,3.237310946E-2,1.047601774E-2,3.569194955E-2
2.886728042E0,2.230391175E-2,6.647816420E-2,2.285559654E-2,7.375085821E-2
2.896780042E0,1.802024156E-2,8.243229210E-2,4.775947273E-2,9.695761508E-2
2.906832042E0,1.336790442E-2,6.808673322E-2,7.749022543E-2,1.040155717E-1
2.916884042E0,6.272600591E-3,3.273212850E-2,8.026648343E-2,8.691056389E-2
2.926936042E0,1.599008828E-2,1.718262792E-2,1.128774284E-1,1.152919748E-1
2.936988042E0,3.726401299E-2,3.958857358E-2,1.211315042E-1,1.327731265E-1
2.947040042E0,4.971273512E-2,3.343320966E-2,1.127056664E-1,1.276389548E-1
2.957092042E0,6.743769228E-2,2.530733407E-2,9.407175958E-2,1.184812198E-1
2.967144042E0,7.358253121E-2,5.440541804E-2,9.025805935E-2,1.285334808E-1
2.977196042E0,5.607479811E-2,4.871607721E-2,8.651116356E-2,1.140255260E-1
2.987248042E0,6.427610278E-2,1.972031951E-2,5.467906773E-2,8.666088413E-2
2.997300042E0,3.712309510E-2,-5.293484330E-3,4.380426988E-2,5.766245941E-2
3.007353042E0,4.529867202E-2,-2.966994166E-2,3.493667498E-2,6.444258207E-2
3.017405042E0,5.270153940E-2,-2.244687617E-2,4.382078826E-2,7.212195220E-2
3.027457042E0,7.199939758E-2,-3.781920612E-2,7.327716038E-2,1.094703057E-1
3.037509042E0,8.791581094E-2,-4.809744179E-2,1.030663852E-1,1.437540729E-1
3.047561042E0,1.029235670E-1,-4.507618546E-2,9.139534280E-2,1.448386406E-1
3.057613042E0,1.133684483E-1,-2.081199467E-2,9.669306636E-2,1.504496370E-1
3.067665042E0,7.289665282E-2,3.500143290E-3,8.967655376E-2,1.156203152E-1
3.077717042E0,4.374272794E-2,2.869696498E-2,4.486261591E-2,6.891731533E-2
3.087769042E0,8.893615007E-4,6.855860353E-2,3.614222467E-2,7.750698991E-2
3.097821042E0,-1.876663864E-3,4.643157005E-2,2.433903515E-2,5.245761334E-2
3.107873042E0,1.315418869E-2,2.866363585E-2,5.824294567E-2,6.623350678E-2
3.117925042E0,2.039070278E-2,5.546084046E-3,7.981493220E-2,8.256490302E-2
3.127977042E0,2.494568378E-2,-7.759255171E-4,6.841169223E-2,7.282203536E-2
3.138030042E0,3.457838684E-2,-8.805906773E-4,5.057271436E-2,6.127021882E-2
3.148082042E0,5.026997477E-2,1.198269904E-2,3.990125343E-2,6.528985729E-2
3.158134042E0,3.466404855E-2,4.999369383E-4,2.886638805E-2,4.511224399E-2
3.168186042E0,4.172660798E-2,-2.489802897E-2,5.148283347E-2,7.079197555E-2
3.178238042E0,6.769906282E-2,-3.180242121E-2,4.648463354E-2,8.806462546E-2
3.188290042E0,8.174758315E-2,-2.154874384E-2,6.213996872E-2,1.049208817E-1
3.198342042E0,9.758915216E-2,-1.360588610E-2,6.002444610E-2,1.153763272E-1
3.208394042E0,8.883265436E-2,-2.082427382E-2,5.952231646E-2,1.089394190E-1
3.218446042E0,8.932674408E-2,-4.008558691E-2,5.381996557E-2,1.117260497E-1
3.228498042E0,1.115742302E-1,-6.104727030E-2,4.460197628E-2,1.347772768E-1
3.238550042E0,1.494896230E-1,-8.242702961E-2,4.170044169E-2,1.757278846E-1
3.248602042E0,1.664550269E-1,-8.689956486E-2,6.766397953E-2,1.995926463E-1
3.258655042E0,1.964550439E-1,-7.661840558E-2,6.376330197E-2,2.202968974E-1
3.268707042E0,2.069575202E-1,-5.721909821E-2,7.699613571E-2,2.281092837E-1
3.278759042E0,1.655735591E-1,-6.154662251E-2,6.731066152E-2,1.890325775E-1
3.288811042E0,1.140107650E-1,-6.411939740E-2,7.268308327E-2,1.496415124E-1
3.298863042E0,7.467479110E-2,-5.286935449E-2,7.737094223E-2,1.198238531E-1
3.308915042E0,3.517480284E-2,-3.119548023E-2,6.491154894E-2,8.014944746E-2
3.318967042E0,-1.000984848E-2,-1.290597439E-2,5.141354397E-2,5.394547011E-2
3.329019042E0,-3.413692206E-2,1.107521117E-2,1.887466595E-2,4.054926343E-2
3.339071625E0,-2.174024016E-2,2.722171247E-2,1.490162909E-2,3.789087253E-2
3.349123625E0,1.883388162E-2,2.226385832E-2,2.989272058E-2,4.176085760E-2
3.359175625E0,7.582581550E-2,1.729430974E-2,4.844359696E-2,9.162657656E-2
3.369227625E0,1.040178734E-1,9.771282077E-3,7.578473881E-2,1.290678991E-1
3.379279625E0,1.327247787E-1,6.062393188E-3,1.028959389E-1,1.680481887E-1
3.389332625E0,1.448957580E-1,1.387544274E-3,1.057609284E-1,1.793936452E-1
3.399384625E0,1.060518274E-1,5.209284425E-3,1.131598489E-1,1.551749920E-1
3.409436625E0,6.912987649E-2,-1.766268432E-2,1.080553758E-1,1.294869665E-1
3.419488625E0,2.698548496E-2,-3.166325748E-2,8.103831589E-2,9.109328688E-2
3.429540625E0,3.612994552E-3,-1.935662270E-2,5.143897936E-2,5.507904474E-2
3.439592625E0,-1.008059978E-2,1.694172263E-2,2.536449060E-2,3.212472321E-2
3.449644625E0,-2.560846567E-2,3.897637010E-2,1.752410531E-3,4.666928200E-2
3.459696625E0,-3.263067931E-2,2.068101704E-2,-1.528593734E-2,4.154666748E-2
3.469748625E0,-3.132178009E-2,-3.753269255E-2,-1.693996847E-2,5.173702204E-2
3.479800625E0,-2.228958607E-2,-4.575095415E-2,-8.033928126E-3,5.152202882E-2
3.489852625E0,4.226075113E-3,-3.679243505E-2,6.523299962E-3,3.760447354E-2
3.499904625E0,4.579627007E-2,-4.297411144E-2,2.837127507E-2,6.891300208E-2
3.509957625E0,5.636745125E-2,-4.517792702E-2,2.652180076E-2,7.695284638E-2
3.520009625E0,6.529848844E-2,-5.981643140E-2,4.104043722E-2,9.760233371E-2
3.530061625E0,6.755726784E-2,-8.174992204E-2,4.321048513E-2,1.145171612E-1
3.540113625E0,8.144235849E-2,-8.410634995E-2,4.232872501E-2,1.244927983E-1
3.550165625E0,8.890018970E-2,-8.108509362E-2,3.123889580E-2,1.243137351E-1
3.560217625E0,1.116666162E-1,-4.439615428E-2,1.166358724E-2,1.207331394E-1
3.570269625E0,1.338965607E-1,-2.711412370E-2,5.133855343E-4,1.366152562E-1
3.580321625E0,1.428132722E-1,-3.500669539E-2,3.683745861E-5,1.470411534E-1
3.590373625E0,1.719721672E-1,-2.540615201E-2,2.529447019E-2,1.756693174E-1
3.600425625E0,1.873810422E-1,-1.090271831E-2,7.002727792E-2,2.003355782E-1
3.610477625E0,1.816896549E-1,6.411471963E-3,1.116145760E-1,2.133308492E-1
3.620529625E0,1.803132203E-1,-3.997741342E-3,1.447466540E-1,2.312583690E-1
3.630581625E0,1.825255144E-1,-1.604885280E-2,1.555008531E-1,2.403198793E-1
3.640634625E0,1.852397919E-1,-6.125192285E-2,1.735118853E-1,2.610975926E-1
3.650686625E0,2.040315735E-1,-9.939681888E-2,1.709053427E-1,2.841078083E-1
3.660738625E0,2.189165381E-1,-1.561165649E-1,1.426789324E-1,3.043913767E-1
3.670790625E0,2.213922492E-1,-2.228923523E-1,9.722984076E-2,3.288604121E-1
3.680842625E0,2.107389146E-1,-2.444440198E-1,7.578620061E-2,3.315227249E-1
3.690894625E0,2.242983153E-1,-2.399890262E-1,1.596567616E-2,3.288759185E-1
3.700946625E0,2.404474479E-1,-2.257884783E-1,-6.714533150E-2,3.366064581E-1
3.710998625E0,2.307586116E-1,-2.454164118E-1,-1.369903225E-1,3.636551944E-1
3.721050625E0,1.981638926E-1,-2.918210846E-1,-1.856077279E-1,3.985959137E-1
3.731102625E0,1.381735066E-1,-3.503189689E-1,-1.820676774E-1,4.182869075E-1
3.741154625E0,1.280633783E-1,-3.567561686E-1,-1.729099144E-1,4.166209683E-1
3.751206625E0,1.521448436E-1,-3.480262756E-1,-1.682862286E-1,4.154402445E-1
3.761258625E0,1.641357288E-1,-4.189366293E-1,-1.392276134E-1,4.709912580E-1
3.771311625E0,1.317944866E-1,-5.619963616E-1,-1.268572439E-1,5.910181533E-1
3.781363625E0,9.427816629E-2,-7.725288695E-1,-1.401109815E-1,7.907719734E-1
3.791415625E0,5.439167708E-2,-9.490703434E-1,-1.425691509E-1,9.612590359E-1
3.801467625E0,6.786717027E-2,-9.989383221E-1,-1.545337236E-1,1.013096440E0
3.811519625E0,1.322719118E-1,-8.816028303E-1,-2.610582983E-1,9.289084154E-1
3.821571625E0,1.792490271E-1,-6.904322076E-1,-4.349692561E-1,8.354789648E-1
3.831623625E0,1.987836975E-1,-4.704815894E-1,-6.117118742E-1,7.969060806E-1
3.841675625E0,1.529052740E-1,-2.899552381E-1,-7.016850279E-1,7.744778508E-1
3.851727625E0,1.905490637E-2,-1.852362835E-1,-7.285316415E-1,7.519534047E-1
3.861779625E0,-2.015046993E-1,-1.478930408E-1,-7.359190138E-1,7.772086529E-1
3.871831625E0,-4.770515209E-1,-1.456570655E-1,-7.179049118E-1,8.741748090E-1
3.881883625E0,-7.788219354E-1,-1.337603205E-1,-7.051385397E-1,1.059091965E0
3.891936625E0,-1.000067712E0,-1.026847082E-1,-7.056927095E-1,1.228284079E0
3.901988625E0,-1.153103086E0,-2.459806681E-2,-6.722890283E-1,1.334999749E0
3.912040625E0,-1.262123253E0,1.159736753E-2,-6.077900004E-1,1.400891962E0
3.922092625E0,-1.335585916E0,-3.588553190E-2,-5.987355870E-1,1.464090781E0
3.932144625E0,-1.333972377E0,-1.493507516E-1,-6.987329149E-1,1.513279761E0
3.942196625E0,-1.214011778E0,-3.507645267E-1,-8.559660056E-1,1.526282461E0
3.952248625E0,-9.837639204E-1,-5.683382517E-1,-1.061124045E0,1.554600932E0
3.962300625E0,-6.500375953E-1,-8.261642092E-1,-1.227995248E0,1.616498841E0
3.972352625E0,-3.428778023E-1,-9.187671483E-1,-1.455633931E0,1.755154808E0
3.982404625E0,7.074633926E-2,-7.160114372E-1,-1.913387886E0,2.044194371E0
3.992456625E0,5.218140033E-1,-4.168696386E-1,-2.285906979E0,2.381478714E0
4.002508625E0,5.923524740E-1,-2.426910245E-1,-2.350329262E0,2.435944997E0
4.012561625E0,4.533831614E-1,-1.280440825E-1,-2.234927444E0,2.284042964E0
4.022613625E0,3.838124049E-1,6.273945451E-2,-2.026440877E0,2.063422116E0
4.032665625E0,5.211974144E-1,2.823445022E-1,-1.662582096E0,1.765090476E0
4.042717625E0,7.462140602E-1,3.424462777E-1,-1.432410545E0,1.651031449E0
4.052769625E0,1.146646006E0,2.161084127E-1,-1.115245289E0,1.614085488E0
4.062821625E0,1.696795909E0,3.165331721E-2,-4.967256474E-1,1.768291452E0
4.072873625E0,2.266044572E0,-1.393245310E-1,1.563837826E-1,2.275703235E0
4.082925625E0,2.609320570E0,-4.720895737E-1,8.537858713E-1,2.785744553E0
4.092977625E0,2.810100507E0,-7.442517346E-1,1.500279762E0,3.271301708E0
4.103029625E0,2.865593507E0,-7.245472026E-1,1.880416607E0,3.503221576E0
4.113081625E0,2.874970102E0,-5.298214728E-1,2.014894381E0,3.550487747E0
4.123133625E0,2.752331185E0,-2.780503070E-1,1.617849727E0,3.204696033E0
4.133185625E0,2.799621711E0,-2.730164391E-1,8.637681647E-1,2.942535496E0
4.143238625E0,2.928672684E0,-5.215722209E-1,1.205352344E-2,2.974778405E0
4.153290625E0,3.020610210E0,-7.517051804E-1,-5.847227347E-1,3.167182880E0
4.163342625E0,3.076557539E0,-8.071613431E-1,-7.102589464E-1,3.259015725E0
4.173394625E0,3.007222425E0,-7.113950604E-1,-5.702681983E-1,3.142399635E0
4.183446625E0,2.707626298E0,-5.065834683E-1,-3.317148829E-1,2.774509280E0
4.193498625E0,2.264456468E0,-2.366666383E-1,-1.309156501E-1,2.280551052E0
4.203550625E0,1.839938379E0,-5.087779284E-2,9.157565631E-2,1.842918308E0
4.213602625E0,1.430873896E0,1.305981463E-1,1.909256244E-1,1.449451130E0
4.223654625E0,1.024671626E0,1.524298954E-1,1.707739265E-1,1.049928830E0
4.233706625E0,7.273059189E-1,1.222325349E-1,1.655697584E-1,7.558624460E-1
4.243758625E0,5.105215681E-1,1.203538245E-1,-1.708859007E-1,5.516514349E-1
4.253810625E0,3.602560195E-1,8.530795276E-2,-5.792848241E-1,6.874829117E-1
4.263863625E0,3.175789467E-1,4.506449103E-3,-9.651225583E-1,1.016040476E0
4.273915625E0,4.138945752E-1,-4.498263001E-3,-1.309864014E0,1.373707644E0
4.283967625E0,6.816105133E-1,1.884382188E-2,-1.563310407E0,1.705546074E0
4.294019625E0,8.219644466E-1,2.692011309E-1,-1.905276483E0,2.092408487E0
4.304071625E0,9.665044016E-1,4.279039192E-1,-2.079701264E0,2.332893026E0
4.314123625E0,1.172638634E0,5.068091708E-1,-2.197374433E0,2.541729982E0
4.324175625E0,1.285390493E0,4.027971447E-1,-2.683371463E0,3.002491743E0
4.334227625E0,1.297471718E0,2.815200448E-2,-3.580710905E0,3.808637023E0
4.344278375E0,1.224486480E0,-4.994440180E-1,-4.324177358E0,4.521871437E0
4.354330375E0,1.276383442E0,-7.190473115E-1,-3.270348007E0,3.583484312E0
4.364382375E0,1.496047547E0,-4.572546029E-1,-3.264360166E-1,1.598061484E0
4.374434375E0,1.756962588E0,-1.945339411E-1,1.647911432E0,2.416686384E0
4.384486375E0,1.333577397E0,7.553491652E-2,2.770158176E0,3.075371607E0
4.394538375E0,-6.320898592E-2,1.753503960E-1,3.831082832E0,3.835614527E0
4.404591375E0,-2.192038118E0,1.638612020E-1,3.743765191E0,4.341389110E0
4.414643375E0,-4.695282594E0,2.445422530E-1,1.966220988E0,5.096224536E0
4.424695375E0,-6.864027159E0,5.701818788E-1,-7.624802832E-1,6.929744035E0
4.434747375E0,-7.429500275E0,5.526174277E-1,-2.049243264E0,7.726723646E0
4.444799375E0,-4.121358497E0,7.911107361E-2,1.550940330E-1,4.125034374E0
4.454851375E0,9.228216076E-1,-1.621070373E-1,3.562294514E0,3.683452269E0
4.464903375E0,3.123253988E0,-2.513834953E-2,4.769859152E0,5.701482591E0
4.474955375E0,4.350592740E0,-2.757815874E-1,3.841653428E0,5.810508905E0
4.485007375E0,5.288813574E0,-8.016661298E-1,1.975235056E0,5.702260178E0
4.495059375E0,5.339166287E0,-1.384296731E0,1.972031220E-1,5.519226681E0
4.505111375E0,4.357643897E0,-1.913187912E0,-6.261982048E-1,4.800153384E0
4.515163375E0,2.841364399E0,-2.174661362E0,-3.078208574E-1,3.591275173E0
4.525216375E0,1.476997903E0,-2.055980426E0,4.599571860E-1,2.572963064E0
4.535268375E0,6.053534657E-1,-1.459629334E0,1.059483317E0,1.902491921E0
4.545320375E0,1.356021935E-1,-6.072672594E-1,1.460964253E0,1.587947741E0
4.555372375E0,-3.243801355E-1,1.686915869E-1,1.782307929E0,1.819423227E0
4.565424375E0,-7.451159531E-1,6.093751806E-1,1.972258238E0,2.194615787E0
4.575476375E0,-1.126068485E0,7.948091000E-1,1.925840701E0,2.368251284E0
4.585528375E0,-1.408912339E0,8.979183161E-1,1.606413742E0,2.317726557E0
4.595580375E0,-1.679268880E0,1.087500250E0,1.327692760E0,2.401118246E0
4.605632375E0,-1.837420276E0,1.457029077E0,1.316114688E0,2.689089971E0
4.615684375E0,-1.870817817E0,1.772366493E0,1.225221475E0,2.853490837E0
4.625736375E0,-1.883627313E0,1.849837423E0,9.583739944E-1,2.808635088E0
4.635788375E0,-1.959649887E0,1.820482646E0,7.994022341E-1,2.791671305E0
4.645840375E0,-2.024942821E0,1.682526948E0,5.380971833E-1,2.687161874E0
4.655893375E0,-1.915058436E0,1.460119330E0,1.889415179E-1,2.415594372E0
4.665945375E0,-1.697140895E0,1.190413585E0,1.029975343E-1,2.075567443E0
4.675997375E0,-1.177042757E0,7.361773145E-1,2.075748400E-1,1.403735731E0
4.686049375E0,-2.638322175E-1,-1.120344061E-1,3.900757961E-1,4.840643282E-1
4.696101375E0,6.600389653E-1,-6.776320678E-1,2.045027129E-1,9.678109395E-1
4.706153375E0,1.558969434E0,-8.707872355E-1,-1.245180653E-1,1.790016999E0
4.716205375E0,2.209949893E0,-8.976698095E-1,-3.557206267E-1,2.411685465E0
4.726257375E0,2.632813513E0,-7.008700722E-1,-8.865057206E-1,2.865103531E0
4.736309375E0,2.225585933E0,-7.860698515E-1,-1.366653050E0,2.727430863E0
4.746361375E0,1.806241753E0,-4.259129423E-1,-1.861477475E0,2.628499476E0
4.756413375E0,1.457910837E0,8.310296774E-2,-1.819262332E0,2.332836373E0
4.766465375E0,8.275038064E-1,4.116381347E-1,-1.232317656E0,1.540394530E0
4.776518375E0,6.861064374E-2,3.554803061E-1,-2.258405185E-1,4.267055288E-1
4.786570375E0,-4.537269777E-1,1.285013348E-1,8.072689319E-1,9.349138419E-1
4.796622375E0,-9.992365301E-1,-1.825354546E-1,1.096734027E0,1.494863994E0
4.806674375E0,-1.398459857E0,-3.451991469E-1,9.658059517E-1,1.734253026E0
4.816726375E0,-1.623618590E0,-3.786832273E-2,1.147901403E0,1.988780774E0
4.826778375E0,-1.758184072E0,4.873589927E-1,7.335068911E-1,1.966408497E0
4.836830375E0,-1.787101477E0,9.685450798E-1,2.635246539E-1,2.049696686E0
4.846882375E0,-1.894081550E0,1.254664544E0,-2.810125065E-1,2.289256662E0
4.856934375E0,-1.877921600E0,1.212710772E0,-7.598392421E-1,2.361061758E0
4.866986375E0,-1.602685558E0,8.130354559E-1,-1.047031671E0,2.079880518E0
4.877038375E0,-1.088165663E0,2.510683304E-1,-1.366681994E0,1.764924783E0
4.887090375E0,-5.819646031E-1,-2.960445285E-1,-1.712111521E0,1.832389430E0
4.897142375E0,-1.088605374E-1,-8.100685787E-1,-1.940842610E0,2.105927766E0
4.907195375E0,2.997013772E-1,-1.318974561E0,-2.078013904E0,2.479446832E0
4.917247375E0,4.586433166E-1,-1.801412537E0,-2.174752871E0,2.860942305E0
4.927299375E0,6.373886061E-1,-2.171159465E0,-2.394966614E0,3.294853978E0
4.937351375E0,8.582885197E-1,-1.847027836E0,-2.928855410E0,3.567403120E0
4.947403375E0,8.636866692E-1,-9.075785011E-1,-3.796735995E0,3.998106753E0
4.957455375E0,1.364564717E-1,2.630662322E-2,-4.773741703E0,4.775764049E0
4.967507375E0,-1.035382263E0,4.938067174E-1,-5.289000100E0,5.411966701E0
4.977559375E0,-2.313038644E0,4.191336805E-1,-4.899334925E0,5.434087184E0
4.987611375E0,-3.325243421E0,1.011714488E-1,-3.769457564E0,5.027553063E0
4.997663375E0,-3.946567387E0,-1.247743195E-1,-2.605154136E0,4.730516975E0
5.007715375E0,-4.285013585E0,-1.952718598E-1,-1.835605592E0,4.665717567E0
5.017767375E0,-4.653315958E0,-2.552017272E-1,-1.631506191E0,4.937640102E0
5.027820375E0,-4.940140012E0,-3.455078799E-1,-1.920954183E0,5.311725144E0
5.037872375E0,-5.011064984E0,-4.750804245E-1,-2.551176442E0,5.643135203E0
5.047924375E0,-5.072083018E0,-1.073424833E0,-3.194350868E0,6.089511021E0
5.057976375E0,-5.192118754E0,-1.905179565E0,-3.763783718E0,6.689833646E0
5.068028375E0,-5.310314956E0,-2.784489117E0,-4.173164535E0,7.305349192E0
5.078080375E0,-5.217237223E0,-3.528932056E0,-4.519699771E0,7.752458430E0
5.088132375E0,-4.504399947E0,-3.790494384E0,-4.990962256E0,7.717977118E0
5.098184375E0,-3.080397990E0,-3.468871796E0,-5.625583375E0,7.291715273E0
5.108236375E0,-1.197203956E0,-2.702883621E0,-6.405040026E0,7.054318884E0
5.118288375E0,5.549384800E-1,-1.832765892E0,-6.984550552E0,7.242301703E0
5.128340375E0,1.871748987E0,-1.303775309E0,-7.144142118E0,7.499469376E0
5.138392375E0,3.399677600E0,-1.203193844E0,-7.524561968E0,8.344130633E0
5.148444375E0,3.811982317E0,-1.601712581E0,-7.198560984E0,8.301564468E0
5.158497375E0,2.477596834E0,-2.689058465E0,-5.754658322E0,6.818035927E0
5.168549375E0,8.349987674E-1,-4.339608160E0,-2.623791259E0,5.139426281E0
5.178601375E0,-3.958892441E-1,-5.919405377E0,1.116824475E0,6.036835696E0
5.188653375E0,-9.746805632E-1,-6.791881873E0,5.549118167E0,8.824532509E0
5.198705375E0,-1.333557517E0,-7.564806599E0,8.697369002E0,1.160383135E1
5.208757375E0,-9.471559650E-1,-8.215878274E0,8.412224268E0,1.179674859E1
5.218809375E0,1.979574859E-1,-7.333822870E0,8.165351899E0,1.097711787E1
5.228861375E0,1.152054096E0,-4.920203345E0,7.634529383E0,9.155417440E0
5.238913375E0,2.046235456E0,-2.368709984E0,5.562450988E0,6.382689678E0
5.248965375E0,1.543678381E0,-9.510057718E-1,2.085349821E0,2.763338343E0
5.259017375E0,2.178929830E-1,-1.932551551E-1,-9.829169512E-1,1.025158836E0
5.269069375E0,1.417236435E-1,4.021849412E-1,-4.861375093E-3,4.264527536E-1
5.279121375E0,6.861842054E-1,1.059083367E0,1.211677496E0,1.749476692E0
5.289174375E0,1.075926272E0,1.537166921E0,2.038244652E0,2.770368341E0
5.299226375E0,1.446339782E0,1.770804117E0,2.825037804E0,3.634347889E0
5.309278375E0,1.893630145E0,1.996466880E0,3.404115636E0,4.377181558E0
5.319330375E0,2.109332176E0,2.054288242E0,4.112951370E0,5.058235995E0
5.329382375E0,2.089456320E0,1.740710837E0,4.937688274E0,5.637079690E0
5.339435000E0,2.077043851E0,1.304208003E0,5.268043095E0,5.810967882E0
5.349487000E0,2.104371983E0,9.017710465E-1,5.139774479E0,5.626620136E0
5.359539000E0,2.109584776E0,5.387086558E-1,4.877770979E0,5.341648122E0
5.369591000E0,2.227279286E0,3.996039802E-1,4.592037138E0,5.119302827E0
5.379643000E0,2.480215217E0,5.895800167E-1,4.104238727E0,4.831547128E0
5.389695000E0,2.866971695E0,8.202509201E-1,3.545980198E0,4.633175351E0
5.399747000E0,3.350258102E0,1.371832221E0,3.384044776E0,4.955594015E0
5.409799000E0,4.091249430E0,2.245928396E0,3.370711663E0,5.757101125E0
5.419852000E0,4.721512034E0,2.976725687E0,3.374968143E0,6.522574773E0
5.429904000E0,5.103300133E0,3.290979615E0,3.765276513E0,7.145035079E0
5.439956000E0,5.357488537E0,3.301795210E0,4.042160592E0,7.479545260E0
5.450008000E0,5.570466936E0,3.035690179E0,4.027444612E0,7.514374681E0
5.460060000E0,5.729772572E0,2.487687374E0,3.809544320E0,7.316523090E0
5.470112000E0,5.747586114E0,1.845743787E0,3.253438736E0,6.857578281E0
5.480164000E0,5.535844987E0,9.855271482E-1,2.062033171E0,5.989058714E0
5.490216000E0,5.017631992E0,7.489757001E-2,-6.008364916E-2,5.018550637E0
5.500268000E0,3.940313498E0,-8.530245638E-1,-2.786900801E0,4.901075131E0
5.510320000E0,2.106231982E0,-1.793287246E0,-5.729777834E0,6.362581736E0
5.520372000E0,3.743235433E-1,-2.843959394E0,-9.262821068E0,9.696807582E0
5.530424000E0,-9.486820883E-1,-4.622597026E0,-1.488766360E1,1.561764798E1
5.540477000E0,-2.213384548E0,-6.068204736E0,-1.713259095E1,1.830977478E1
5.550529000E0,-1.738470769E0,-5.121974385E0,-1.062673324E1,1.192410841E1
5.560581000E0,-3.306957132E-1,-2.136405954E0,-4.674210398E0,5.149935233E0
5.570633000E0,-1.813057852E-1,1.389708329E0,-3.077107762E0,3.381235456E0
5.580685000E0,-8.601388711E-1,2.710451673E0,-2.255266399E0,3.629409550E0
5.590737000E0,-1.521809794E0,1.998181869E0,-5.072377717E-1,2.562406289E0
5.600789000E0,-1.490253541E0,3.219225508E-1,1.295695919E0,2.000829243E0
5.610841000E0,-1.881957348E0,-2.505421395E0,1.364702419E0,3.417793516E0
5.620893000E0,-4.383945258E0,-5.444853541E0,-8.188006644E-1,7.038170261E0
5.630945000E0,-6.819537449E0,-6.621273569E0,-1.866902814E0,9.686727043E0
5.640997000E0,-7.192412052E0,-5.190035976E0,5.717898631E-1,8.887868597E0
5.651049000E0,-6.980043519E0,-2.139499131E0,4.099001083E0,8.372590635E0
5.661101000E0,-4.727182664E0,5.477975678E-1,7.577189248E0,8.947632927E0
5.671153000E0,-1.729466057E-1,1.938464255E0,8.501107793E0,8.721031355E0
5.681206000E0,4.014959053E0,1.983784270E0,8.116536419E0,9.270030187E0
5.691258000E0,6.472097649E0,9.456988388E-1,7.073351047E0,9.634038058E0
5.701310000E0,7.494275145E0,-8.416675168E-1,5.794340451E0,9.510359899E0
5.711362000E0,7.924065961E0,-2.893244990E0,4.603882135E0,9.610276720E0
5.721414000E0,8.512170140E0,-4.687459604E0,2.798692589E0,1.011246747E1
5.731466000E0,9.105877706E0,-5.563113477E0,1.683290595E0,1.080271760E1
5.741518000E0,9.531700602E0,-5.027086939E0,1.941356288E0,1.094960199E1
5.751570000E0,8.599159167E0,-3.497138990E0,2.956177987E0,9.742407700E0
5.761622000E0,6.257208965E0,-2.090708794E0,4.015760121E0,7.723344913E0
5.771674000E0,4.213679600E0,-1.210942574E0,4.563066523E0,6.327958106E0
5.781726000E0,2.755880445E0,-6.050710452E-1,4.072453555E0,4.954378463E0
5.791778000E0,1.716874663E0,-1.204198980E-1,3.186179384E0,3.621311727E0
5.801831000E0,4.088501823E-1,-1.352846897E-1,1.593729962E0,1.650889339E0
5.811883000E0,-1.058736042E0,-1.531666446E-1,5.724780804E-1,1.213306713E0
5.821935000E0,-1.756873126E0,-1.320359766E-2,2.582446182E-1,1.775800608E0
5.831987000E0,-2.146075494E0,8.214694798E-2,3.870657957E-1,2.182248400E0
5.842039000E0,-2.299626886E0,3.557077628E-1,6.793610164E-1,2.424116997E0
5.852091000E0,-2.312265642E0,4.085028577E-1,9.429892391E-1,2.530350903E0
5.862143000E0,-1.933216964E0,6.163070548E-1,1.669715114E0,2.627757747E0
5.872195000E0,-1.669429770E0,1.019349782E0,2.299543855E0,3.018935521E0
5.882247000E0,-1.849975417E0,1.682842698E0,2.462760694E0,3.509922909E0
5.892299000E0,-2.357743531E0,2.170219817E0,2.095617532E0,3.828892980E0
5.902351000E0,-2.966484874E0,2.139707876E0,1.333791844E0,3.893248385E0
5.912403000E0,-2.800475990E0,1.784277272E0,5.055738004E-1,3.358856356E0
5.922455000E0,-2.146247987E0,1.543791817E0,-2.439486144E-1,2.655030042E0
5.932508000E0,-1.465702252E0,1.255512975E0,-1.042892865E0,2.193677609E0
5.942560000E0,-9.693005401E-1,9.615009391E-1,-1.405838019E0,1.959695928E0
5.952612000E0,-7.573337102E-1,8.485765868E-1,-1.222381482E0,1.669686516E0
5.962664000E0,-4.589304149E-1,4.475002778E-1,-1.288842105E0,1.439440028E0
5.972716000E0,-5.995571208E-1,3.064970112E-1,-1.014480514E0,1.217612365E0
5.982768000E0,-9.109014738E-1,4.178373528E-1,-5.983544947E-1,1.167200775E0
5.992820000E0,-1.104583476E0,5.037990242E-1,-3.628296715E-1,1.267108315E0
6.002872000E0,-1.489197534E0,6.173718327E-1,-4.224548990E-1,1.666530953E0
6.012924000E0,-1.864405761E0,7.100782675E-1,-8.087045695E-1,2.152724568E0
6.022976000E0,-2.048512655E0,8.199579746E-1,-1.439216411E0,2.634402979E0
6.033028000E0,-1.964791929E0,1.107811723E0,-2.167561088E0,3.128254339E0
6.043080000E0,-1.734970918E0,1.405616848E0,-3.014982850E0,3.751800154E0
6.053132000E0,-1.475023591E0,1.468632292E0,-3.663466548E0,4.213497662E0
6.063185000E0,-1.151778984E0,1.394860311E0,-4.026141268E0,4.413846806E0
6.073237000E0,-1.080315776E0,1.161833564E0,-3.764180160E0,4.084849040E0
6.083289000E0,-1.388942344E0,6.262771422E-1,-2.726407262E0,3.123248382E0
6.093341000E0,-2.159845102E0,-2.133368325E-1,-1.085832332E0,2.426824123E0
6.103393000E0,-2.961051641E0,-1.025092333E0,6.309610543E-1,3.196365587E0
6.113445000E0,-3.073419046E0,-1.408855621E0,1.527801144E0,3.710115245E0
6.123497000E0,-2.379329697E0,-1.117387124E0,1.384607803E0,2.971010360E0
6.133549000E0,-1.286309091E0,-3.705719697E-1,5.604275537E-1,1.451204226E0
6.143601000E0,-7.274023980E-1,8.297608316E-2,-8.415470642E-1,1.115437466E0
6.153653000E0,-9.063660809E-1,1.718233556E-1,-2.505066761E0,2.669528463E0
6.163705000E0,-1.316424883E0,2.307685518E-1,-3.999755415E0,4.217140260E0
6.173757000E0,-1.820911539E0,2.699922591E-1,-5.120309098E0,5.441156120E0
6.183809000E0,-2.438210282E0,5.697819293E-2,-5.800278298E0,6.292165305E0
6.193862000E0,-3.279039016E0,-4.439083332E-1,-5.748749710E0,6.633044151E0
6.203914000E0,-4.526754437E0,-1.144327000E0,-4.781675790E0,6.683218789E0
6.213966000E0,-5.920825081E0,-1.728121197E0,-3.183854823E0,6.941145730E0
6.224018000E0,-7.250971917E0,-2.243688912E0,-1.551349928E0,7.747091085E0
6.234070000E0,-8.184086378E0,-2.273464104E0,-7.855688913E-1,8.530241929E0
6.244122000E0,-8.177017679E0,-1.436825777E0,-1.364827403E0,8.413729273E0
6.254174000E0,-7.107163156E0,-7.531272233E-2,-2.831521196E0,7.650813840E0
6.264226000E0,-5.884021536E0,8.418142819E-1,-4.654594744E0,7.549543890E0
6.274278000E0,-4.611505442E0,1.139904166E0,-6.674627073E0,8.192436177E0
6.284330000E0,-3.293744178E0,9.808025980E-1,-7.655528489E0,8.391533882E0
6.294382000E0,-2.403361169E0,8.923734015E-1,-6.360069675E0,6.857329033E0
6.304434000E0,-2.135731185E0,1.191697049E0,-4.730256545E0,5.325111880E0
6.314487000E0,-2.833328863E0,7.373666382E-1,-2.266132280E0,3.702271940E0
6.324539000E0,-3.729464656E0,-3.633389640E-1,1.193827189E0,3.932702020E0
6.334591000E0,-3.867708913E0,-1.655279508E0,3.923280559E0,5.752499703E0
6.344642917E0,-3.817415257E0,-2.785540447E0,6.409437132E0,7.963214123E0
6.354694917E0,-4.106960606E0,-3.743673390E0,8.086174167E0,9.811647595E0
6.364746917E0,-4.414462169E0,-4.823402690E0,8.186085541E0,1.047686433E1
6.374798917E0,-4.194085873E0,-5.441308959E0,8.021657159E0,1.056149530E1
6.384850917E0,-3.981465909E0,-4.851129602E0,8.829403224E0,1.083253851E1
6.394902917E0,-3.722349764E0,-2.539665028E0,9.168223643E0,1.021577755E1
6.404954917E0,-3.614864491E0,4.292324066E-1,6.530012566E0,7.476132012E0
6.415006917E0,-4.712594445E0,2.531617506E0,1.526350011E0,5.563036757E0
6.425058917E0,-5.229642676E0,3.725886744E0,2.065834446E-1,6.424489961E0
6.435110917E0,-3.926917527E0,3.865500128E0,2.428889089E0,6.021816562E0
6.445162917E0,-2.991733736E0,3.664358248E0,4.330944926E0,6.413663233E0
6.455215917E0,-2.388974680E0,3.486532726E0,6.322970846E0,7.605463220E0
6.465267917E0,-1.602323615E0,3.332429357E0,7.755210652E0,8.591613273E0
6.475319917E0,-7.492592901E-1,2.985012361E0,8.416603832E0,8.961635361E0
6.485371917E0,-2.359450918E-1,2.351440818E0,8.194348826E0,8.528323205E0
6.495423917E0,8.000803649E-2,1.732879077E0,7.675397912E0,7.868990043E0
6.505475917E0,4.591093397E-1,1.225936589E0,7.442647154E0,7.556897417E0
6.515527917E0,8.781336772E-1,8.648300922E-1,7.507351273E0,7.607849432E0
6.525579917E0,1.360906114E0,7.146771026E-1,7.783263838E0,7.933600998E0
6.535631917E0,1.920765318E0,8.508377051E-1,8.058077711E0,8.327417404E0
6.545683917E0,2.967098832E0,1.326843159E0,7.899043386E0,8.541608435E0
6.555735917E0,3.566170049E0,1.712802662E0,7.765336275E0,8.715027782E0
6.565787917E0,3.473860640E0,1.616864471E0,7.774594756E0,8.667541871E0
6.575840917E0,3.621743740E0,1.290949441E0,7.194053366E0,8.157081709E0
6.585892917E0,3.983214519E0,8.358624011E-1,6.555747331E0,7.716377838E0
6.595944917E0,4.484624956E0,1.632519221E-1,6.067460386E0,7.546693827E0
6.605996917E0,4.849991149E0,-6.036355537E-1,5.232549326E0,7.160053246E0
6.616048917E0,5.219021208E0,-1.131318115E0,4.129887538E0,6.750854326E0
6.626100917E0,5.990397007E0,-1.476083983E0,2.648060127E0,6.713858999E0
6.636152917E0,7.387019083E0,-1.862476764E0,9.727278855E-1,7.680043631E0
6.646204917E0,8.827253203E0,-2.651613480E0,-1.577617082E0,9.350953364E0
6.656256917E0,8.508722622E0,-4.052511041E0,-4.937346797E0,1.063948306E1
6.666308917E0,3.442814848E0,-4.962529585E0,-8.378658911E0,1.032867848E1
6.676360917E0,-2.624461350E0,-4.905958359E0,-1.133784938E1,1.262945183E1
6.686412917E0,-5.265197255E0,-4.774419980E0,-8.658085653E0,1.120177823E1
6.696464917E0,-6.082000657E0,-3.893059224E0,-4.600343400E0,8.562114313E0
6.706516917E0,-6.667827930E0,-2.377402455E0,-2.622555742E0,7.549156931E0
6.716569917E0,-7.339453154E0,-4.883594513E-1,-4.333767669E-1,7.368438299E0
6.726621917E0,-7.614247731E0,1.171265123E0,1.165763039E0,7.791510377E0
6.736673917E0,-6.976503029E0,2.655786054E0,1.064072942E0,7.540361086E0
6.746725917E0,-6.333574771E0,4.542160973E0,1.101017843E0,7.871317296E0
6.756777917E0,-4.963645819E0,6.238372160E0,1.135803222E0,8.052646520E0
6.766829917E0,-3.539626029E0,6.337027552E0,2.485688504E0,7.672386718E0
6.776881917E0,-2.353518333E0,4.188319057E0,3.595604932E0,6.000786606E0
6.786933917E0,-1.305777980E0,9.493714750E-1,3.611343298E0,3.955775872E0
6.796985917E0,-9.265147090E-1,-2.471443225E0,3.616791734E0,4.477459499E0
6.807037917E0,-9.321280360E-1,-5.242017138E0,3.991165855E0,6.654097327E0
6.817089917E0,3.236708683E-1,-6.848742537E0,3.547800436E0,7.719904475E0
6.827141917E0,3.147274935E0,-7.071617932E0,3.072963256E0,8.328038356E0
6.837193917E0,5.265282624E0,-6.016846887E0,3.861751478E0,8.879120004E0
6.847246917E0,6.391376252E0,-4.834721146E0,4.636911887E0,9.258788841E0
6.857298917E0,7.815711207E0,-3.928631346E0,3.659914949E0,9.482323732E0
6.867350917E0,9.312752781E0,-2.109320481E0,2.850152764E0,9.964936931E0
6.877402917E0,1.003205152E1,1.977504945E-1,2.549611727E0,1.035285869E1
6.887454917E0,1.004474466E1,2.034531670E0,2.606905085E0,1.057507298E1
6.897506917E0,8.976646054E0,3.032835569E0,2.708732007E0,9.854719431E0
6.907558917E0,7.528778980E0,3.225777898E0,2.475532182E0,8.556659135E0
6.917610917E0,5.639852335E0,2.630788037E0,2.600601786E0,6.744783889E0
6.927662917E0,3.226530727E0,1.229955965E0,3.566072985E0,4.963886455E0
6.937714917E0,5.362779683E-1,-2.471407557E-1,5.524531209E0,5.555998353E0
6.947766917E0,-2.538797009E0,-1.744345466E0,7.364740022E0,7.982958534E0
6.957818917E0,-5.534099593E0,-2.911202374E0,9.001788497E0,1.096054532E1
6.967870917E0,-7.812199370E0,-2.930460763E0,1.062129299E1,1.350666221E1
6.977923917E0,-1.046860230E1,-1.215665370E0,9.196968555E0,1.398762693E1
6.987975917E0,-1.289154814E1,7.342676139E-1,6.060736088E0,1.426406969E1
6.998027917E0,-1.331623726E1,1.698131413E0,4.696436834E0,1.422189664E1
7.008079917E0,-1.106357521E1,2.480700536E0,3.705819100E0,1.192852324E1
7.018131917E0,-6.859479779E0,3.346597161E0,1.308102833E0,7.743597899E0
7.028183917E0,-2.465467955E0,3.464686943E0,-1.975301714E0,4.688753002E0
7.038235917E0,1.638473733E0,2.708672365E0,-7.543038000E0,8.180398794E0
7.048287917E0,4.865777754E0,1.338943972E0,-1.077822875E1,1.190120914E1
7.058339917E0,2.964731586E0,-9.455181599E-2,-6.100014174E0,6.782974742E0
7.068391917E0,2.373201815E0,-1.124476288E0,-3.833279046E0,4.646564540E0
7.078443917E0,3.018629174E0,-1.849766087E0,-2.679209999E0,4.439811132E0
7.088495917E0,3.612173310E0,-2.112075105E0,-1.538083619E0,4.458066676E0
7.098547917E0,4.018603038E0,-2.070371593E0,-6.044342834E-1,4.560805818E0
7.108600917E0,4.009652705E0,-1.556572661E0,1.790475905E-2,4.301227016E0
7.118652917E0,3.726846857E0,-6.676222193E-1,2.063172501E-1,3.791790307E0
7.128704917E0,3.051624719E0,4.504110217E-3,6.298511066E-1,3.115950277E0
7.138756917E0,1.891045091E0,2.363830483E-1,1.043459607E0,2.172725577E0
7.148808917E0,1.287337616E-1,1.992994219E-1,1.262308463E0,1.284412433E0
7.158860917E0,-1.186605586E0,6.238394380E-3,1.675873256E0,2.053441721E0
7.168912917E0,-2.033340299E0,-1.144984227E-1,1.805199048E0,2.721456644E0
7.178964917E0,-2.622565390E0,4.463121235E-2,1.530485747E0,3.036812110E0
7.189016917E0,-2.840383236E0,7.119125390E-1,8.749858287E-1,3.056173521E0
7.199068917E0,-3.026932805E0,1.439863406E0,2.098387358E-1,3.358505788E0
7.209120917E0,-3.140661441E0,2.023060602E0,-2.060231352E-1,3.741520282E0
7.219172917E0,-3.199265160E0,2.325832352E0,-5.328088152E-1,3.991074909E0
7.229224917E0,-3.246705667E0,1.996869169E0,-8.749342270E-1,3.910766430E0
7.239277917E0,-3.365520212E0,7.781030202E-1,-1.163049346E0,3.644839419E0
7.249329917E0,-3.173168744E0,-3.214161819E-1,-1.508057143E0,3.527966070E0
7.259381917E0,-2.598228694E0,-4.161983782E-1,-2.308153880E0,3.500226817E0
7.269433917E0,-2.293985200E0,-1.266284716E-1,-3.581692944E0,4.255223521E0
7.279485917E0,-2.280513215E0,2.693730390E-1,-4.745202028E0,5.271645345E0
7.289537917E0,-2.716651183E0,4.543403506E-1,-4.748156334E0,5.489226482E0
7.299589917E0,-3.527792141E0,3.964991087E-1,-3.382221614E0,4.903259322E0
7.309641917E0,-4.600203944E0,1.790721488E-1,-1.527075504E0,4.850350787E0
7.319693917E0,-6.072441629E0,-4.179385096E-1,3.780868113E-2,6.086924464E0
7.329745917E0,-7.907016649E0,-1.296742278E0,1.126167887E0,8.091397094E0
7.339797792E0,-9.412296950E0,-1.774411265E0,1.452726988E0,9.687635672E0
7.349849792E0,-9.484417677E0,-1.517193418E0,7.458006620E-1,9.633912661E0
7.359901792E0,-8.221821384E0,-8.069917738E-1,-9.745703432E-1,8.318615868E0
7.369954792E0,-6.117947584E0,-3.234293783E-1,-3.656257223E0,7.134571192E0
7.380006792E0,-4.029450792E0,-2.266474342E-1,-6.576668669E0,7.716243485E0
7.390058792E0,-2.678586686E0,-4.682584780E-1,-8.725439145E0,9.139331535E0
7.400110792E0,-2.624829724E0,-9.351487076E-1,-9.422023208E0,9.825413758E0
7.410162792E0,-3.228056558E0,-1.166140623E0,-9.032833704E0,9.662935259E0
7.420214792E0,-3.409905842E0,-7.113400966E-1,-7.795441250E0,8.538288286E0
7.430266792E0,-4.216082514E0,-1.212197971E-1,-7.073429400E0,8.235499346E0
7.440318792E0,-4.512839818E0,3.703667325E-1,-6.236556600E0,7.706979496E0
7.450370792E0,-3.856827537E0,-3.557352448E-1,-3.590144802E0,5.281174672E0
7.460422792E0,-3.721629971E0,-2.069322603E0,2.513185181E-1,4.265651964E0
7.470474792E0,-4.068724785E0,-4.094239696E0,4.305301961E0,7.200898905E0
7.480526792E0,-4.118419102E0,-5.738213028E0,8.237467949E0,1.085100654E1
7.490578792E0,-3.793203692E0,-6.254158473E0,1.082560523E1,1.306509169E1
7.500631792E0,-2.670526592E0,-5.879416854E0,1.053063658E1,1.235287666E1
7.510683792E0,-9.743045872E-1,-4.866111923E0,9.619654419E0,1.082432750E1
7.520735792E0,3.666964352E-1,-3.432295123E0,9.311618421E0,9.930828450E0
7.530787792E0,1.005465569E0,-2.062588949E0,7.714794112E0,8.048806271E0
7.540839792E0,1.575874904E0,-8.486075771E-1,5.384461159E0,5.674146500E0
7.550891792E0,1.486751059E0,2.154353982E-1,9.475985992E-1,1.776171227E0
7.560943792E0,8.598225367E-1,7.292191279E-1,-3.191053623E0,3.384357924E0
7.570995792E0,1.135518170E0,8.744499314E-1,-3.059249196E0,3.378323525E0
7.581047792E0,1.196729747E0,8.945953435E-1,-1.813252126E0,2.349541697E0
7.591099792E0,1.293823932E0,8.752796513E-1,4.923238635E-1,1.637827104E0
7.601151792E0,1.688039703E0,7.219726735E-1,2.872995497E0,3.409519865E0
7.611203792E0,2.161326202E0,6.928529549E-1,4.693962293E0,5.213890886E0
7.621255792E0,2.066719422E0,7.348722160E-1,5.720159165E0,6.126302899E0
7.631308792E0,2.082180630E0,7.958814794E-1,6.131699066E0,6.524311224E0
7.641360792E0,2.174601721E0,8.811935252E-1,6.053940454E0,6.492733607E0
7.651412792E0,2.004912014E0,9.781397760E-1,5.561921815E0,5.992612442E0
7.661464792E0,1.982700781E0,1.196195312E0,4.975261313E0,5.487732750E0
7.671516792E0,2.206958458E0,1.470801609E0,4.749510841E0,5.439832372E0
7.681568792E0,2.712888792E0,1.632405785E0,5.235282315E0,6.118226472E0
7.691620792E0,3.488925991E0,1.767458925E0,5.610826757E0,6.839436565E0
7.701672792E0,4.310568548E0,2.017978787E0,5.678118854E0,7.409066966E0
7.711724792E0,4.836992204E0,2.252068557E0,5.734594771E0,7.832871986E0
7.721776792E0,5.251979039E0,2.537983369E0,5.481434891E0,8.004422020E0
7.731828792E0,5.550816198E0,2.824964713E0,4.891026616E0,7.919225180E0
7.741880792E0,5.758830895E0,2.873920527E0,3.964419229E0,7.559111872E0
7.751932792E0,5.941119012E0,2.550006999E0,3.247579826E0,7.235067763E0
7.761985792E0,5.959111480E0,1.770045149E0,2.670097991E0,6.765611039E0
7.772037792E0,5.816154073E0,9.232426071E-1,1.599138783E0,6.102234834E0
7.782089792E0,5.281981688E0,2.431623101E-1,3.023728238E-1,5.296214477E0
7.792141792E0,3.671988280E0,-2.919087929E-1,-1.171582042E0,3.865399481E0
7.802193792E0,9.207142711E-1,-8.472258800E-1,-3.567408197E0,3.780463953E0
7.812245792E0,-2.038922929E0,-1.696645051E0,-7.431072006E0,7.890287846E0
7.822297792E0,-5.150042775E0,-2.877006102E0,-1.195305833E1,1.332950517E1
7.832349792E0,-6.657044495E0,-3.965151885E0,-1.291942298E1,1.506486512E1
7.842401792E0,-5.234665434E0,-4.087705432E0,-8.280888788E0,1.061528035E1
7.852453792E0,-3.836904320E0,-3.683611375E0,-3.794269931E0,6.533552773E0
7.862505792E0,-2.907359583E0,-2.793177495E0,-1.582567627E0,4.331177734E0
7.872557792E0,-1.408942745E0,-2.039555597E0,-4.630291669E-1,2.521765790E0
7.882609792E0,1.480982780E-2,-1.680081058E0,8.155813336E-2,1.682124675E0
7.892662792E0,1.105899099E0,-1.431984867E0,-5.537678674E-2,1.810154708E0
7.902714792E0,1.920740175E0,-6.896673918E-1,-4.222498079E-1,2.084029470E0
7.912766792E0,2.743453358E0,-9.137151539E-2,-1.417650418E0,3.089436484E0
7.922818792E0,2.398965232E0,-1.836784099E0,-3.340291523E0,4.504037908E0
7.932870792E0,-1.692254376E-1,-4.202395059E0,-3.850023133E0,5.701880357E0
7.942922792E0,-2.491177577E0,-5.197464278E0,-1.937894737E0,6.080710210E0
7.952974792E0,-2.470012411E0,-4.522098007E0,2.603452889E0,5.773066658E0
7.963026792E0,-1.077711427E0,-2.412343662E0,5.224641552E0,5.854719738E0
7.973078792E0,1.514636430E0,-1.250398416E0,4.763017910E0,5.152083008E0
7.983130792E0,4.246440965E0,-1.250382628E0,5.684850168E0,7.205084248E0
7.993182792E0,5.013772244E0,-1.573841243E0,6.679301337E0,8.498703120E0
8.003234792E0,5.372457410E0,-1.914024063E0,6.085214871E0,8.340061556E0
8.013286792E0,6.000629634E0,-1.641456106E0,5.264870396E0,8.149895364E0
8.023339792E0,6.615415244E0,-4.799213344E-1,4.688745407E0,8.122707481E0
8.033391792E0,6.801727999E0,1.001128689E0,4.490175133E0,8.211421019E0
8.043443792E0,6.290055115E0,1.688312768E0,4.301811758E0,7.805176343E0
8.053495792E0,4.752776511E0,1.225451270E0,4.085048457E0,6.385783921E0
8.063547792E0,3.252639422E0,4.678088272E-1,5.097509050E0,6.064907817E0
8.073599792E0,2.062498902E0,-2.323677653E-1,5.879770610E0,6.235350746E0
8.083651792E0,4.063083977E-1,-6.638303000E-1,5.862652302E0,5.914089042E0
8.093703792E0,-1.430365773E0,-8.663550460E-1,5.230447837E0,5.491275069E0
8.103755792E0,-3.418974581E0,-8.112169719E-1,4.096383870E0,5.397019637E0
8.113807792E0,-4.800471080E0,-5.146777689E-1,2.724167486E0,5.543510105E0
8.123859792E0,-5.050758222E0,-4.538842678E-2,1.552448620E0,5.284157023E0
8.133911792E0,-4.852456920E0,5.613566762E-1,9.632000669E-1,4.978876766E0
8.143963792E0,-4.498466485E0,1.369852354E0,5.331040996E-1,4.732535913E0
8.154015792E0,-3.684021850E0,1.835481339E0,-4.227941106E-1,4.137603605E0
8.164068792E0,-2.359221123E0,1.531068276E0,-1.335860443E0,3.113618071E0
8.174120792E0,-7.270234984E-1,1.072419112E0,-1.978848781E0,2.365267092E0
8.184172792E0,5.197361952E-1,7.759687865E-1,-1.847005763E0,2.069706152E0
8.194224792E0,1.634170475E0,2.665435714E-1,-1.482491947E0,2.222462821E0
8.204276792E0,2.198664767E0,-1.697388232E-1,-1.631269233E0,2.742986937E0
8.214328792E0,2.421316799E0,-3.294812465E-1,-1.463540098E0,2.848382444E0
8.224380792E0,2.825710818E0,-1.348841554E-1,-1.214427661E0,3.078582451E0
8.234432792E0,3.041532133E0,-1.520433944E-1,-1.214899385E0,3.278721614E0
8.244484792E0,2.526510547E0,-3.042376471E-1,-8.597403833E-1,2.686069548E0
8.254536792E0,1.930244824E0,-1.972604978E-1,-4.450638892E-1,1.990687984E0
8.264588792E0,1.609106385E0,2.638462508E-1,1.767215681E-1,1.640142895E0
8.274640792E0,1.324707756E0,4.790582854E-1,5.210281375E-1,1.501938015E0
8.284692792E0,6.223507369E-1,-8.039453745E-2,5.035166037E-1,8.045574507E-1
8.294745792E0,-3.621955410E-1,-7.649888849E-1,5.901629841E-1,1.031836204E0
8.304797792E0,-1.125493996E0,-1.121567298E0,7.901832215E-1,1.774553314E0
8.314849792E0,-1.869619723E0,-1.340368938E0,7.822954738E-1,2.429825716E0
8.324901792E0,-2.404709245E0,-1.012142504E0,5.161243701E-1,2.659594587E0
8.334953792E0,-2.890064104E0,-4.220099258E-1,-3.037292317E-1,2.936462898E0
8.345006000E0,-3.338266340E0,1.222530001E-1,-1.636924514E0,3.720012072E0
8.355058000E0,-3.695279202E0,5.987420189E-1,-3.180016419E0,4.911831105E0
8.365110000E0,-3.786454835E0,8.445958024E-1,-4.640255617E0,6.048351385E0
8.375162000E0,-3.828871999E0,9.495924997E-1,-6.081020079E0,7.248502735E0
8.385214000E0,-3.680840380E0,9.046584016E-1,-6.978361275E0,7.941317196E0
8.395266000E0,-3.099556685E0,7.425525337E-1,-6.390642427E0,7.141354671E0
8.405318000E0,-2.805370694E0,2.479640436E-1,-4.403881924E0,5.227405370E0
8.415370000E0,-2.748203928E0,-1.618544376E-1,-2.268603606E0,3.567265621E0
8.425423000E0,-2.568166404E0,-2.153564608E-1,-7.785658273E-1,2.692215042E0
8.435475000E0,-2.687161920E0,-2.565647131E-1,-7.196665317E-2,2.700341430E0
8.445527000E0,-3.394126253E0,-4.479744869E-1,4.753523201E-2,3.423891611E0
8.455579000E0,-4.291810973E0,-5.230077124E-1,-3.602039793E-1,4.338539547E0
8.465631000E0,-4.742249477E0,-3.874411869E-1,-1.301949516E0,4.932961921E0
8.475683000E0,-4.859348741E0,-2.697893608E-1,-3.001494201E0,5.717956271E0
8.485735000E0,-4.673343548E0,-4.422085476E-1,-5.381461537E0,7.141135526E0
8.495787000E0,-4.091852570E0,-7.725142515E-1,-7.607319950E0,8.672447898E0
8.505839000E0,-3.500723626E0,-1.173028643E0,-8.508400440E0,9.274909172E0
8.515891000E0,-3.351581620E0,-1.789333359E0,-7.887837782E0,8.755158371E0
8.525943000E0,-3.310450843E0,-2.111895010E0,-6.501390445E0,7.595213166E0
8.535995000E0,-3.121674070E0,-1.777373464E0,-5.513540198E0,6.580503852E0
8.546047000E0,-2.982787496E0,-9.122515959E-1,-4.953958152E0,5.854137476E0
8.556100000E0,-2.946326598E0,-2.952452141E-1,-4.484272076E0,5.373705073E0
8.566152000E0,-2.367950723E0,-1.919699371E-1,-5.321545118E0,5.827768486E0
8.576204000E0,-1.737763548E0,-4.596490377E-1,-5.995565361E0,6.259225462E0
8.586256000E0,-2.228576491E0,-6.578240401E-1,-3.071599685E0,3.851494550E0
8.596308000E0,-3.572556085E0,-1.615547678E0,1.098672379E0,4.071883137E0
8.606360000E0,-4.356247582E0,-3.725639407E0,3.774013422E0,6.862977437E0
8.616412000E0,-4.449927870E0,-5.574274058E0,5.499348421E0,9.006510000E0
8.626464000E0,-4.349798688E0,-7.072740013E0,6.448953785E0,1.051348681E1
8.636516000E0,-3.741809590E0,-8.316158608E0,6.454398712E0,1.117223772E1
8.646568000E0,-2.400863239E0,-8.770650401E0,6.336258059E0,1.108316827E1
8.656620000E0,-4.879618406E-1,-7.754498461E0,6.886782768E0,1.038258783E1
8.666672000E0,1.786380515E0,-5.414790666E0,7.095402067E0,9.102518541E0
8.676724000E0,3.002193235E0,-3.148719197E0,6.542119811E0,7.856648676E0
8.686776000E0,3.218703936E0,-1.630770904E0,4.805703753E0,6.009513902E0
8.696829000E0,2.315064704E0,-1.573707926E-1,1.668600050E0,2.858061630E0
8.706881000E0,1.023988379E0,1.005828096E0,-8.337136225E-1,1.659915890E0
8.716933000E0,1.047947930E0,1.964466239E0,-4.893183216E-1,2.279639201E0
8.726985000E0,1.057509297E0,2.946985579E0,6.730858576E-1,3.202513776E0
8.737037000E0,9.360462552E-1,3.238859873E0,2.545878865E0,4.224676918E0
8.747089000E0,1.318085200E0,2.952200126E0,4.396201022E0,5.457052098E0
8.757141000E0,2.055220873E0,2.204507305E0,5.792136050E0,6.529366380E0
8.767193000E0,2.842802230E0,1.465007018E0,6.491485262E0,7.236515113E0
8.777245000E0,3.479166403E0,8.823120975E-1,6.435271300E0,7.368567717E0
8.787297000E0,3.926667851E0,4.885483164E-1,6.189276599E0,7.346056403E0
8.797349000E0,4.262874565E0,3.214062417E-1,6.020172783E0,7.383622543E0
8.807401000E0,4.509032403E0,4.733771306E-1,5.820720749E0,7.378092515E0
8.817453000E0,4.703656392E0,8.154673129E-1,5.466959524E0,7.257893415E0
8.827506000E0,4.971044886E0,1.351059403E0,4.828328677E0,7.060411219E0
8.837558000E0,5.313256690E0,1.933536807E0,4.071702188E0,6.967640916E0
8.847610000E0,5.661994572E0,2.457038609E0,3.204269207E0,6.954319694E0
8.857662000E0,6.051329087E0,2.938853272E0,2.649634490E0,7.230214741E0
8.867714000E0,6.409019056E0,3.167669438E0,2.586976604E0,7.602769422E0
8.877766000E0,6.396089108E0,2.806008625E0,2.988067239E0,7.596853698E0
8.887818000E0,6.198802882E0,2.144329516E0,3.372607330E0,7.375485506E0
8.897870000E0,5.714128346E0,1.158476093E0,3.665856012E0,6.887077023E0
8.907922000E0,4.848877839E0,1.394502461E-1,3.449663107E0,5.952414487E0
8.917974000E0,3.894372509E0,-8.091774631E-1,1.962578173E0,4.435382564E0
8.928026000E0,1.664908703E0,-1.990851799E0,-1.288670197E0,2.897599481E0
8.938078000E0,-2.833825584E0,-3.412519255E0,-5.944315685E0,7.416922817E0
8.948130000E0,-7.903142869E0,-5.073740119E0,-1.262696514E1,1.573666911E1
8.958183000E0,-9.935448503E0,-6.458585318E0,-1.748604695E1,2.112316973E1
8.968235000E0,-6.582930452E0,-6.018247295E0,-1.285259750E1,1.564428126E1
8.978287000E0,-2.489471360E0,-4.025205714E0,-5.766387252E0,7.459957816E0
8.988339000E0,2.653226727E-1,-1.631053909E0,-3.302935709E0,3.693252939E0
8.998391000E0,2.092436062E0,-2.396914029E-1,-2.781157666E0,3.488635636E0
9.008443000E0,2.857419099E0,-1.170758754E-1,-1.882620861E0,3.423859222E0
9.018495000E0,2.917084672E0,-1.091928347E0,-3.119512939E-1,3.130336102E0
9.028547000E0,2.622259288E0,-2.863965642E0,5.568351705E-1,3.922831679E0
9.038599000E0,1.843728837E0,-5.687743371E0,2.680761266E-1,5.985116998E0
9.048651000E0,3.607796377E-1,-7.824536995E0,2.500700645E-1,7.836840956E0
9.058703000E0,-1.791321412E0,-8.026876969E0,-2.152464016E0,8.501334461E0
9.068755000E0,-3.210856388E0,-5.502688935E0,-3.978651352E0,7.511248288E0
9.078807000E0,-8.051592565E-1,-8.940638316E-1,1.292980179E-1,1.210103112E0
9.088860000E0,2.696538808E0,1.954770970E0,3.785546763E0,5.042104261E0
9.098912000E0,5.604643911E0,2.415238618E0,6.721320598E0,9.078632140E0
9.108964000E0,6.922138542E0,1.653851033E0,8.584613049E0,1.115108992E1
9.119016000E0,7.158337403E0,4.764942813E-1,8.726942464E0,1.129727250E1
9.129068000E0,7.179453453E0,-6.847346807E-1,7.104330765E0,1.012348404E1
9.139120000E0,6.769718587E0,-1.162880800E0,4.956176001E0,8.470245690E0
9.149172000E0,5.444351850E0,-7.378396779E-1,3.770932524E0,6.663730678E0
9.159224000E0,3.826896225E0,-3.271107852E-2,3.112319695E0,4.932822581E0
9.169276000E0,2.494247950E0,2.370566475E-1,3.624038773E0,4.405805910E0
9.179328000E0,1.639560438E0,-3.820570707E-3,4.614253049E0,4.896887198E0
9.189380000E0,5.093690819E-1,-2.295897532E-1,5.711039847E0,5.738305016E0
9.199432000E0,-9.709248966E-1,-1.732290262E-1,6.946212698E0,7.015880151E0
9.209484000E0,-2.791893446E0,2.627037048E-2,7.198321248E0,7.720828190E0
9.219536000E0,-4.878752434E0,2.770381540E-1,5.663176879E0,7.480009880E0
9.229589000E0,-6.207180188E0,4.190021181E-1,3.322449914E0,7.052894590E0
9.239641000E0,-6.048208428E0,7.040761006E-1,1.083169802E0,6.184642687E0
9.249693000E0,-4.897731911E0,9.250862342E-1,-6.726332100E-1,5.029512685E0
9.259745000E0,-3.543663531E0,7.177585852E-1,-1.837474655E0,4.055741821E0
9.269797000E0,-2.191318325E0,4.355626023E-1,-2.429042579E0,3.300278569E0
9.279849000E0,-3.374124098E-1,4.506735617E-1,-2.889469442E0,2.943804928E0
9.289901000E0,1.189663972E0,3.653603464E-1,-2.340455069E0,2.650758095E0
9.299953000E0,1.925924317E0,2.200406653E-1,-1.246840239E0,2.304823843E0
9.310005000E0,2.571170996E0,-1.882838523E-1,-4.662030356E-1,2.619869533E0
9.320057000E0,3.146664485E0,-5.634394544E-1,-3.480006941E-1,3.215597283E0
9.330109000E0,3.350893110E0,-7.307399887E-1,-4.254283543E-1,3.455930389E0
9.340160125E0,3.538382910E0,-5.679722160E-1,-2.390575647E-1,3.591642323E0
9.350212125E0,3.724765833E0,-2.774468744E-1,1.894170427E-1,3.739884503E0
9.360265125E0,3.574204123E0,-1.482666779E-1,4.961106665E-1,3.611515460E0
9.370317125E0,2.865865987E0,-2.829613835E-1,6.401232027E-1,2.950086899E0
9.380369125E0,2.267829727E0,-2.219439340E-1,5.772024845E-1,2.350632572E0
9.390421125E0,1.716527338E0,-6.046254873E-2,3.337128764E-1,1.749710292E0
9.400473125E0,1.125992471E0,-2.328647786E-1,2.624182145E-1,1.179384742E0
9.410525125E0,5.347617853E-1,-2.993821192E-1,5.047749245E-1,7.939757834E-1
9.420577125E0,-3.372083420E-1,-6.198773646E-1,9.322332859E-1,1.169194728E0
9.430629125E0,-1.372143878E0,-1.206027405E0,8.258985995E-1,2.004841495E0
9.440681125E0,-2.279618298E0,-1.634596152E0,-4.258658722E-2,2.805419360E0
9.450733125E0,-2.952993886E0,-1.511700543E0,-1.118697192E0,3.500984837E0
9.460785125E0,-3.257938753E0,-7.366445071E-1,-2.192126118E0,3.995275581E0
9.470837125E0,-2.959687778E0,4.424412668E-1,-3.393569013E0,4.524579170E0
9.480889125E0,-2.600168215E0,1.357023563E0,-4.917777920E0,5.725987022E0
9.490942125E0,-2.474058392E0,1.620945243E0,-6.586517719E0,7.220155405E0
9.500994125E0,-2.273983921E0,1.598025911E0,-7.753582202E0,8.236669634E0
9.511046125E0,-2.102710204E0,1.276944190E0,-6.716291993E0,7.152660680E0
9.521098125E0,-2.537680776E0,5.168336374E-1,-3.856822275E0,4.645645142E0
9.531150125E0,-3.350680856E0,-2.398954707E-1,-1.556553950E0,3.702360360E0
9.541202125E0,-3.570958334E0,-2.864404768E-1,-1.072727260E-1,3.584033901E0
9.551254125E0,-3.492403623E0,5.399903655E-2,8.543378484E-1,3.595788108E0
9.561306125E0,-3.922148245E0,3.600709552E-1,1.194132122E0,4.115683354E0
9.571358125E0,-4.682224300E0,4.907913083E-1,9.125743622E-1,4.795507530E0
9.581410125E0,-5.077463626E0,5.822628111E-1,-5.057461470E-2,5.110990574E0
9.591462125E0,-4.940739936E0,3.569105351E-1,-1.817224285E0,5.276419274E0
9.601514125E0,-4.578675373E0,-5.738416511E-1,-3.940423133E0,6.067989525E0
9.611566125E0,-4.668427210E0,-1.949970991E0,-5.746199155E0,7.656069762E0
9.621618125E0,-4.857749235E0,-3.175435125E0,-6.900665812E0,9.016668149E0
9.631671125E0,-4.553325354E0,-3.576149492E0,-7.076308569E0,9.143071690E0
9.641723125E0,-3.675051344E0,-3.180584183E0,-6.584320335E0,8.183849486E0
9.651775125E0,-2.442690711E0,-2.374806876E0,-6.320010985E0,7.179762145E0
9.661827125E0,-1.554545723E0,-1.701203540E0,-6.436378763E0,6.836495993E0
9.671879125E0,-1.019886265E0,-1.272019665E0,-6.306126187E0,6.513480598E0
9.681931125E0,-2.685786948E-1,-9.379337364E-1,-7.086727138E0,7.153569440E0
9.691983125E0,1.082413173E0,-5.771055669E-1,-7.863385895E0,7.958486467E0
9.702035125E0,1.546147952E0,-5.052397782E-1,-5.766044605E0,5.991085971E0
9.712087125E0,2.452772480E-1,-1.088084387E0,-1.828617146E0,2.141945198E0
9.722139125E0,-1.641676253E0,-2.668732374E0,1.907920740E0,3.668432220E0
9.732191125E0,-2.541261903E0,-4.494748240E0,4.050814179E0,6.562763847E0
9.742243125E0,-2.750836052E0,-5.952784792E0,5.473820647E0,8.541982103E0
9.752295125E0,-3.312327214E0,-7.280577539E0,6.018352545E0,1.000993947E1
9.762348125E0,-3.307227858E0,-7.860158232E0,5.942829323E0,1.039408793E1
9.772400125E0,-2.134169978E0,-6.958954951E0,6.058786626E0,9.470513760E0
9.782452125E0,-1.333282113E-1,-4.359686329E0,6.931287096E0,8.189467755E0
9.792504125E0,1.309208542E0,-1.636209984E0,7.479471749E0,7.767477567E0
9.802556125E0,1.245620656E0,-4.086472839E-1,6.331602505E0,6.465891563E0
9.812608125E0,-4.620352864E-2,6.013802826E-2,2.676849478E0,2.677923539E0
9.822660125E0,-1.455483658E0,6.153130281E-1,-7.853137334E-1,1.764585067E0
9.832712125E0,-1.147398543E0,1.245521253E0,-5.426975533E-1,1.778304598E0
9.842764125E0,-6.275097352E-1,1.874792755E0,6.147763268E-1,2.070402442E0
9.852816125E0,1.713772130E-1,1.973037087E0,1.544495383E0,2.511515774E0
9.862868125E0,1.123616163E0,1.863756720E0,2.799631652E0,3.545989252E0
9.872920125E0,1.594844441E0,1.536675755E0,4.399546798E0,4.925536844E0
9.882972125E0,2.046181077E0,1.296513652E0,5.514553521E0,6.023130846E0
9.893025125E0,2.470350380E0,1.146446031E0,5.883085982E0,6.482875147E0
9.903077125E0,2.692234088E0,9.135134250E-1,5.549105887E0,6.234998581E0
9.913129125E0,2.890162922E0,6.672211003E-1,4.864615328E0,5.697605462E0
9.923181125E0,2.922861722E0,4.640227550E-1,4.666250876E0,5.525607206E0
9.933233125E0,3.282263755E0,4.898516607E-1,4.559697065E0,5.639507721E0
9.943285125E0,3.896077557E0,6.936703956E-1,4.217137936E0,5.783152369E0
9.953337125E0,4.517842403E0,1.001310537E0,3.759070863E0,5.961890348E0
9.963389125E0,5.154504200E0,1.534259686E0,3.399061303E0,6.362113177E0
9.973441125E0,5.786407533E0,2.186275102E0,3.122010578E0,6.928871554E0
9.983493125E0,6.169293154E0,2.853958717E0,2.953561065E0,7.411395371E0
9.993545125E0,6.213536696E0,3.360543939E0,2.940661231E0,7.651717606E0
1.000359712E1,6.010236025E0,3.419745244E0,3.017381085E0,7.544679133E0
1.001364913E1,5.901887119E0,2.980929835E0,2.889389920E0,7.215732004E0
1.002370112E1,5.573296988E0,2.193271295E0,2.717520372E0,6.577005037E0
1.003375413E1,5.145293081E0,1.214871318E0,2.525942783E0,5.859209858E0
1.004380612E1,4.586432582E0,2.129801524E-1,1.645519044E0,4.877341211E0
1.005385813E1,3.181189370E0,-8.315220129E-1,-3.406324714E-2,3.288244968E0
1.006391012E1,1.333742874E0,-2.034869639E0,-2.830742640E0,3.732648978E0
1.007396212E1,-1.061717538E0,-3.359438231E0,-7.075301678E0,7.903984008E0
1.008401412E1,-4.577366474E0,-4.817856022E0,-1.362694660E1,1.516105848E1
1.009406612E1,-8.033145184E0,-6.337542692E0,-1.882747190E1,2.142824228E1
1.010411812E1,-7.632471163E0,-5.741421980E0,-1.401595952E1,1.696070941E1
1.011417012E1,-4.394804707E0,-2.601191770E0,-6.268609282E0,8.085540759E0
1.012422212E1,-2.384936008E0,5.161103368E-2,-2.822213598E0,3.695331251E0
1.013427412E1,-1.119651166E0,-1.213408345E-1,-1.355110939E0,1.762006807E0
1.014432612E1,3.987742603E-2,-1.000390186E0,-9.776521182E-1,1.399347847E0
1.015437812E1,9.790987194E-2,-2.297811325E0,-5.001146936E-1,2.353643545E0
1.016443112E1,-2.567605948E-1,-4.588189670E0,1.348614974E-1,4.597346852E0
1.017448312E1,-1.281969872E0,-6.323713442E0,2.046540096E-2,6.452380745E0
1.018453512E1,-2.889263036E0,-6.695768266E0,-3.130592244E0,7.936104923E0
1.019458712E1,-3.977930390E0,-4.506761929E0,-1.633597156E0,6.229243369E0
1.020463912E1,-3.031236940E0,-5.393787467E-1,5.018141284E0,5.887365180E0
1.021469112E1,2.862966353E-1,1.625265166E0,8.047205983E0,8.214680564E0
1.022474312E1,4.877648479E0,2.000309086E0,7.369394406E0,9.060941730E0
1.023479512E1,7.773574417E0,1.610845347E0,7.419997380E0,1.086644574E1
1.024484712E1,9.651542795E0,8.725145030E-1,7.118953482E0,1.202468538E1
1.025489912E1,1.098806777E1,-1.747990036E-1,5.020259145E0,1.208185375E1
1.026495112E1,1.112887691E1,-1.144017683E0,3.316394538E0,1.166872532E1
1.027500312E1,1.027342692E1,-1.720413398E0,2.300811532E0,1.066756095E1
1.028505513E1,8.304947156E0,-2.032207401E0,2.036421490E0,8.789142545E0
1.029510812E1,5.522953631E0,-2.288557522E0,3.531427063E0,6.943449390E0
1.030516012E1,3.104755152E0,-2.649071696E0,5.590649185E0,6.921881515E0
1.031521212E1,1.164026270E0,-2.572067959E0,6.950702190E0,7.502183128E0
1.032526413E1,-7.018348628E-1,-2.071527003E0,6.994499005E0,7.328493203E0
1.033531612E1,-2.503942049E0,-1.267612034E0,6.248665599E0,6.849991812E0
1.034536929E1,-4.113506856E0,-4.872899956E-1,4.004850386E0,5.761702597E0
1.035542129E1,-5.460710605E0,2.748179662E-1,1.878680568E0,5.781377509E0
1.036547329E1,-5.807944583E0,7.456685150E-1,-1.854105306E-1,5.858550919E0
1.037552529E1,-5.292666305E0,1.095373526E0,-1.765607697E0,5.685906288E0
1.038557729E1,-4.280413288E0,1.178578820E0,-2.218193883E0,4.963000106E0
1.039562929E1,-2.513245554E0,8.448437244E-1,-1.435066204E0,3.014892891E0
1.040568129E1,-7.065243298E-1,4.401994443E-1,-3.963348019E-1,9.219725888E-1
1.041573329E1,5.334964478E-1,2.805663639E-1,6.171835524E-1,8.627001111E-1
1.042578529E1,1.561175589E0,1.292293131E-1,1.212807251E0,1.981128684E0
1.043583829E1,2.570839459E0,-2.309831446E-1,1.348713500E0,2.912318121E0
1.044589029E1,3.403988752E0,-5.233351564E-1,1.695272709E0,3.838615462E0
1.045594229E1,3.911194364E0,-6.179963154E-1,1.376747537E0,4.192230263E0
1.046599429E1,4.072436598E0,-7.172802830E-1,8.962113677E-1,4.231125815E0
1.047604629E1,3.740663828E0,-8.424738479E-1,5.279367690E-1,3.870535530E0
1.048609829E1,3.227431490E0,-5.365013319E-1,1.460516064E-1,3.274977676E0
1.049615029E1,2.676544839E0,-7.320012331E-2,-3.088259572E-1,2.695296645E0
1.050620229E1,1.768407344E0,1.734354329E-1,-6.021013905E-1,1.876131783E0
1.051625429E1,8.258934832E-1,3.583629835E-1,-7.708644596E-1,1.185224067E0
1.052630629E1,-6.290142238E-2,2.786467230E-1,-1.175662960E0,1.209869406E0
1.053635829E1,-8.847012699E-1,1.671666330E-1,-1.076652642E0,1.403503449E0
1.054641029E1,-1.387534334E0,-6.341890097E-3,-6.581099689E-1,1.535708462E0
1.055646229E1,-1.851562936E0,-4.444076854E-1,-4.360730642E-1,1.953443937E0
1.056651529E1,-2.376263418E0,-1.054666965E0,-7.822726697E-1,2.714940288E0
1.057656729E1,-2.594269252E0,-1.233315775E0,-1.568241657E0,3.272717930E0
1.058661929E1,-2.459038649E0,-7.038463050E-1,-2.564109898E0,3.621730286E0
1.059667129E1,-2.041201296E0,4.199528754E-2,-3.685710233E0,4.213398422E0
1.060672329E1,-1.454681127E0,6.180156112E-1,-4.890392778E0,5.139453473E0
1.061677529E1,-1.030541646E0,8.017082298E-1,-5.878291265E0,6.021549665E0
1.062682729E1,-1.087599653E0,6.973547262E-1,-6.141374454E0,6.275799296E0
1.063687929E1,-1.833014984E0,4.169316190E-1,-4.986037731E0,5.328634737E0
1.064693129E1,-3.081267764E0,1.503611505E-1,-2.860001230E0,4.206712082E0
1.065698329E1,-4.249951633E0,-4.773140609E-2,-1.091457061E0,4.388125532E0
1.066703529E1,-4.906061854E0,-8.949689806E-2,8.317371905E-3,4.906885142E0
1.067708729E1,-5.021793455E0,3.832148194E-2,4.442541960E-1,5.041551332E0
1.068713929E1,-4.880854800E0,2.518869406E-1,2.102954033E-1,4.891872317E0
1.069719129E1,-4.628651817E0,4.248522574E-1,-5.691463369E-1,4.682824430E0
1.070724429E1,-4.215165378E0,1.561726981E-1,-1.839415931E0,4.601680132E0
1.071729629E1,-3.626864147E0,-4.199400115E-1,-3.610745420E0,5.134975720E0
1.072734829E1,-3.245724505E0,-1.196397625E0,-5.799922203E0,6.753161659E0
1.073740029E1,-3.473720307E0,-2.503190097E0,-7.520370684E0,8.653823932E0
1.074745229E1,-3.777931057E0,-3.653134518E0,-7.745447556E0,9.360027388E0
1.075750429E1,-4.070870714E0,-4.153621679E0,-6.255594549E0,8.541488429E0
1.076755629E1,-4.235069885E0,-4.393711277E0,-4.771638752E0,7.746550981E0
1.077760829E1,-3.714303995E0,-4.339100037E0,-4.302069328E0,7.150639398E0
1.078766029E1,-2.258848696E0,-3.546413476E0,-4.575321410E0,6.213936915E0
1.079771229E1,-4.054485646E-1,-2.183700573E0,-5.281764756E0,5.729744817E0
1.080776429E1,1.866871824E0,-1.158806460E0,-7.875069802E0,8.175864921E0
1.081781629E1,4.272770685E0,-8.674929142E-1,-8.990696329E0,9.992083554E0
1.082786829E1,3.729853495E0,-1.500576215E0,-5.422693763E0,6.750492109E0
1.083792129E1,1.631402403E0,-2.952562653E0,-5.168314447E-1,3.412655090E0
1.084797329E1,-4.152341723E-2,-5.246889038E0,2.544462084E0,5.831454027E0
1.085802529E1,-1.089446204E0,-7.328672057E0,4.301840410E0,8.567505942E0
1.086807729E1,-1.750680925E0,-8.703126755E0,6.026165594E0,1.072958391E1
1.087812929E1,-1.946550370E0,-9.771618292E0,6.763890667E0,1.204258275E1
1.088818129E1,-1.254190335E0,-9.956745232E0,6.580055376E0,1.200028740E1
1.089823329E1,1.258016753E-1,-8.324835291E0,7.264142185E0,1.104927465E1
1.090828529E1,1.933079554E0,-4.828990290E0,7.490310148E0,9.119248318E0
1.091833729E1,2.444893357E0,-2.206835082E0,5.652513896E0,6.542059152E0
1.092838929E1,1.402169330E0,-5.380005580E-1,2.061348170E0,2.550427358E0
1.093844129E1,2.414794815E-1,6.486953670E-1,-3.949689654E-1,7.969432243E-1
1.094849329E1,7.038176537E-2,1.424573522E0,3.084546590E-1,1.459283245E0
1.095854529E1,-3.862904549E-2,1.937822816E0,1.551453424E0,2.482671383E0
1.096859829E1,2.951931739E-1,2.254931939E0,2.456844481E0,3.347826439E0
1.097865029E1,1.055307820E0,2.376141211E0,3.399453067E0,4.279719944E0
1.098870229E1,1.923097188E0,2.156874717E0,4.334360869E0,5.209327738E0
1.099875429E1,2.595617620E0,1.891370196E0,5.132095331E0,6.054165056E0
1.100880629E1,2.971352096E0,1.630003164E0,5.709763985E0,6.639822916E0
1.101885829E1,3.131973356E0,1.395468421E0,6.079453025E0,6.979709041E0
1.102891029E1,3.304632863E0,1.254641156E0,5.904471003E0,6.881678619E0
1.103896229E1,3.605854517E0,1.195319399E0,5.248214017E0,6.478790445E0
1.104901429E1,4.019357328E0,1.326470107E0,4.479980805E0,6.163195948E0
1.105906629E1,4.313027303E0,1.436323501E0,3.943601095E0,6.018074385E0
1.106911829E1,4.860250674E0,1.737341087E0,3.420083505E0,6.191717197E0
1.107917029E1,5.621368117E0,2.216726816E0,2.885225533E0,6.696131993E0
1.108922229E1,5.741721942E0,2.505656453E0,2.971963130E0,6.933848135E0
1.109927529E1,5.433025793E0,2.697857940E0,3.653470440E0,7.081246570E0
1.110932729E1,5.292905456E0,2.828919185E0,4.169443367E0,7.307659674E0
1.111937929E1,5.392734969E0,2.821886154E0,4.282541967E0,7.442096318E0
1.112943129E1,5.678514710E0,2.721219905E0,4.203993395E0,7.571269877E0
1.113948329E1,5.734817550E0,2.289840986E0,3.574876553E0,7.135211730E0
1.114953529E1,5.058231549E0,1.658757432E0,2.423025063E0,5.848780478E0
1.115958729E1,3.900901510E0,1.150868865E0,1.440471078E0,4.314682916E0
1.116963929E1,2.568521622E0,6.108960414E-1,-4.128797910E-1,2.672258786E0
1.117969129E1,1.212329534E0,-1.668011820E-1,-3.859163792E0,4.048544270E0
1.118974329E1,4.647133112E-2,-1.185085602E0,-7.032049824E0,7.131361174E0
1.119979529E1,-7.229994446E-1,-2.383265458E0,-9.516605430E0,9.837096185E0
1.120984729E1,-1.946203630E0,-3.950479467E0,-1.280391592E1,1.354009820E1
1.121989929E1,-3.474245387E0,-5.697432207E0,-1.451038254E1,1.597129663E1
1.122995129E1,-3.721051097E0,-6.339609683E0,-1.160436781E1,1.373674723E1
1.124000429E1,-3.557228487E0,-5.462960613E0,-7.578622985E0,9.996666420E0
1.125005629E1,-3.817402101E0,-3.624602444E0,-4.836931393E0,7.148860537E0
1.126010829E1,-3.618101510E0,-2.414536952E0,-2.816484497E0,5.182010435E0
1.127016029E1,-2.698333318E0,-1.785221012E0,-8.364979935E-1,3.341817717E0
1.128021229E1,-1.412513055E0,-1.205100036E0,6.549115419E-1,1.968849500E0
1.129026429E1,-3.373457515E-1,-2.582335085E-1,1.069848676E0,1.151113761E0
1.130031629E1,4.501420498E-1,1.458535904E0,1.274549025E0,1.988574883E0
1.131036829E1,1.073722456E0,3.186178799E0,-2.081257939E-2,3.362298086E0
1.132042029E1,1.045219034E0,2.318486495E0,-2.209882504E0,3.369190279E0
1.133047229E1,-2.352785093E-1,-2.107792604E-1,-1.518568683E-1,3.504916290E-1
1.134052429E1,-2.360883486E-1,-1.884607891E0,3.536645118E0,4.014392021E0
1.135057612E1,1.689039577E0,-2.609869038E0,5.723379811E0,6.513167244E0
1.136062812E1,4.242298213E0,-2.862796783E0,5.189726658E0,7.288755884E0
1.137068012E1,6.252038857E0,-4.229567655E0,1.841136035E0,7.769621247E0
1.138073312E1,5.941135384E0,-6.420477844E0,-1.733892399E0,8.917735602E0
1.139078512E1,3.619129450E0,-6.593905091E0,-3.254954919E-1,7.528853143E0
1.140083712E1,3.441185814E0,-3.746240902E0,3.553596196E0,6.205169347E0
1.141088912E1,4.409374214E0,-5.577559608E-1,5.927127210E0,7.408408036E0
1.142094112E1,4.404675391E0,9.928221345E-1,6.700681096E0,8.079974520E0
1.143099312E1,3.797335042E0,1.632037995E0,6.796748511E0,7.954815633E0
1.144104513E1,3.253861490E0,1.485194530E0,6.463992823E0,7.387599110E0
1.145109712E1,2.669937485E0,1.284622754E0,6.124243866E0,6.803321595E0
1.146114913E1,1.567714530E0,1.094863064E0,6.305106432E0,6.588688876E0
1.147120112E1,2.459303820E-1,7.844940269E-1,6.239198956E0,6.293132467E0
1.148125313E1,-1.137088147E0,5.729324090E-1,5.289984187E0,5.441061817E0
1.149130512E1,-2.700449426E0,3.028869402E-1,3.735441095E0,4.619273511E0
1.150135713E1,-3.672202873E0,-3.344636589E-1,2.100921541E0,4.243914608E0
1.151141012E1,-3.811174816E0,-8.769636494E-1,7.918439770E-1,3.990129773E0
1.152146213E1,-3.434430526E0,-8.382141513E-1,-1.965717689E-1,3.540699996E0
1.153151412E1,-2.431626610E0,-3.239883721E-1,-8.419055716E-1,2.593565389E0
1.154156613E1,-1.288069103E0,4.572674668E-1,-3.700889897E-1,1.416044282E0
1.155161812E1,-3.293835980E-1,9.418578029E-1,-6.065451282E-1,1.167684319E0
1.156167012E1,6.795429379E-1,1.211232011E0,-1.118530839E0,1.783247831E0
1.157172212E1,1.785569506E0,1.518789123E0,-1.021244427E0,2.556935478E0
1.158177412E1,2.709055358E0,1.482780799E0,-6.248474979E-1,3.150881500E0
1.159182612E1,3.099193280E0,1.187508688E0,1.383404446E-1,3.321793785E0
1.160187812E1,2.903970537E0,7.479144305E-1,6.090132380E-1,3.059953921E0
1.161193012E1,2.602300403E0,4.179028416E-1,6.848030931E-1,2.723153585E0
1.162198212E1,2.329170527E0,3.533957738E-1,5.375745884E-1,2.416383735E0
1.163203412E1,1.592650566E0,3.373352265E-1,8.927119553E-2,1.630429461E0
1.164208612E1,4.225841224E-2,-5.377625763E-2,-1.854099458E-1,1.976221326E-1
1.165213912E1,-1.192377664E0,-2.849400812E-1,-4.309890564E-1,1.299502563E0
1.166219112E1,-2.055850618E0,-1.174179375E-2,-5.064122911E-1,2.117336308E0
1.167224312E1,-2.723321394E0,-4.915812671E-2,-7.593205941E-1,2.827625099E0
1.168229512E1,-2.878926913E0,-6.618171036E-2,-8.572062001E-1,3.004563638E0
1.169234712E1,-2.950413802E0,-3.898689508E-1,-9.313626355E-1,3.118393137E0
1.170239912E1,-2.858509313E0,-8.644406676E-1,-1.088097543E0,3.178409889E0
1.171245112E1,-2.410401801E0,-8.565662223E-1,-1.432625430E0,2.931920558E0
1.172250312E1,-1.891191271E0,-2.396925724E-1,-1.937477538E0,2.718064782E0
1.173255512E1,-1.441872217E0,4.803364867E-1,-2.679888861E0,3.080831534E0
1.174260712E1,-1.215268052E0,7.383378607E-1,-3.695654885E0,3.959783361E0
1.175265912E1,-9.633591843E-1,4.271964061E-1,-4.803049117E0,4.917299921E0
1.176271112E1,-7.648804191E-1,-5.198174715E-2,-5.251984302E0,5.307643852E0
1.177276313E1,-9.757570356E-1,-4.923150927E-1,-4.788377576E0,4.911520717E0
1.178281612E1,-1.432749099E0,-7.348704618E-1,-3.577338523E0,3.923028866E0
1.179286812E1,-1.920124756E0,-6.915554577E-1,-2.388744007E0,3.141850722E0
1.180292012E1,-2.182094343E0,-4.013628227E-1,-1.808002641E0,2.862079906E0
1.181297213E1,-2.373810803E0,-4.142459929E-2,-1.685467513E0,2.911613722E0
1.182302412E1,-3.042464764E0,6.671029866E-2,-1.711125095E0,3.491273578E0
1.183307613E1,-4.035138671E0,-9.553882599E-2,-1.844928101E0,4.437930989E0
1.184312812E1,-4.819026049E0,-4.043115735E-1,-2.157561765E0,5.295427526E0
1.185318013E1,-5.011090711E0,-8.127337396E-1,-2.760148913E0,5.778407070E0
1.186323212E1,-4.352977234E0,-1.297845647E0,-3.693574153E0,5.854511436E0
1.187328413E1,-3.240351206E0,-1.748287075E0,-4.614979565E0,5.903763208E0
1.188333612E1,-2.616223208E0,-2.269580383E0,-5.192567235E0,6.241664320E0
1.189338812E1,-3.109973499E0,-3.164022530E0,-5.221099309E0,6.851485367E0
1.190344012E1,-3.897683203E0,-3.796980700E0,-5.064157117E0,7.433349453E0
1.191349212E1,-4.297515809E0,-3.689591907E0,-5.070740497E0,7.602245705E0
1.192354512E1,-3.799363733E0,-2.665400046E0,-5.330795413E0,7.068019660E0
1.193359712E1,-2.898398141E0,-1.381497669E0,-5.708000464E0,6.549085195E0
1.194364912E1,-2.241971878E0,-7.405674040E-1,-6.412668303E0,6.833534426E0
1.195370112E1,-1.148304569E0,-3.518667269E-1,-7.775843722E0,7.868046718E0
1.196375312E1,3.048320165E-1,1.377685869E-1,-8.131856124E0,8.138733733E0
1.197380512E1,3.975904915E-1,6.597126907E-1,-5.889290462E0,5.939447885E0
1.198385712E1,-3.821216825E-1,-4.964461505E-2,-1.978718827E0,2.015889323E0
1.199390912E1,-2.104996173E0,-1.722110844E0,1.480940096E0,3.096749621E0
1.200396112E1,-3.457782551E0,-3.904530877E0,4.394911711E0,6.820327740E0
1.201401312E1,-4.069889843E0,-6.268344988E0,5.627770234E0,9.355637339E0
1.202406512E1,-4.863343266E0,-8.128014504E0,6.107768751E0,1.127038449E1
1.203411712E1,-5.035059618E0,-9.208008683E0,6.300694124E0,1.224083313E1
1.204416912E1,-3.695373634E0,-8.620837719E0,6.469804956E0,1.139442870E1
1.205422212E1,-1.521747229E0,-5.538456938E0,7.023097737E0,9.072713029E0
1.206427412E1,-1.217057008E-1,-2.507871963E0,7.303391036E0,7.722936921E0
1.207432612E1,3.781324196E-1,-7.256605124E-1,6.544960388E0,6.595913416E0
1.208437812E1,-1.707398665E-1,7.173510343E-1,3.592790083E0,3.667681173E0
1.209443012E1,-1.403002558E0,2.023971598E0,-1.026423671E0,2.668037249E0
1.210448212E1,-1.395083674E0,2.788061766E0,-4.067044003E-1,3.144034882E0
1.211453412E1,-6.927249008E-1,3.239049908E0,1.124455677E0,3.497958356E0
1.212458612E1,-3.638652134E-1,3.201034235E0,2.039333403E0,3.812859662E0
1.213463812E1,2.270965004E-1,2.824200482E0,3.333695279E0,4.375066331E0
1.214469013E1,9.549257451E-1,2.402539635E0,4.833804595E0,5.481764929E0
1.215474212E1,1.527048315E0,1.990006877E0,6.151275544E0,6.643056130E0
1.216479413E1,1.969731072E0,1.750984980E0,6.706281559E0,7.205553501E0
1.217484612E1,2.380431313E0,1.646258424E0,6.473385791E0,7.090933904E0
1.218489813E1,2.462006403E0,1.499292752E0,6.391213115E0,7.011202419E0
1.219495112E1,2.610044455E0,1.339293051E0,6.533937217E0,7.162288286E0
1.220500313E1,3.047052489E0,1.416161132E0,6.434236343E0,7.258749103E0
1.221505512E1,3.536351003E0,1.618193543E0,6.000645422E0,7.150669496E0
1.222510713E1,4.028063248E0,1.761159720E0,5.561607234E0,7.089319581E0
1.223515912E1,4.641329166E0,1.931497298E0,5.126045802E0,7.179760706E0
1.224521113E1,5.534693086E0,2.316410149E0,4.622794077E0,7.574220000E0
1.225526312E1,6.394999187E0,2.791334453E0,4.203481179E0,8.145969350E0
1.226531512E1,6.613212013E0,3.017885408E0,4.078011626E0,8.335009555E0
1.227536712E1,6.638529287E0,2.961809440E0,4.101272434E0,8.346425692E0
1.228541912E1,6.634056167E0,2.594785561E0,4.260145669E0,8.300147857E0
1.229547112E1,6.335961020E0,2.090338081E0,4.350700621E0,7.965080742E0
1.230552312E1,5.703542547E0,1.256438590E0,4.129730833E0,7.152881396E0
1.231557512E1,5.157588022E0,4.056616956E-1,3.016114579E0,5.988507557E0
1.232562812E1,4.074464412E0,-5.230422109E-1,1.952218661E-1,4.112535104E0
1.233568012E1,1.083280315E0,-2.062297173E0,-4.247768575E0,4.844595312E0
1.234573225E1,-3.896718412E0,-3.933597386E0,-1.052671778E1,1.189409055E1
1.235578425E1,-9.360794674E0,-6.383442750E0,-1.806310282E1,2.132248817E1
1.236583625E1,-9.816068240E0,-7.687975273E0,-1.711143339E1,2.117218251E1
1.237588825E1,-5.502917562E0,-6.509829147E0,-7.807337995E0,1.155917401E1
1.238594025E1,-3.488110304E0,-4.341054761E0,-2.941421953E0,6.297907037E0
1.239599225E1,-2.179805158E0,-1.241552163E0,-1.721138452E0,3.042255721E0
1.240604425E1,-7.189034700E-1,5.805793977E-1,-1.351484495E0,1.637194239E0
1.241609625E1,6.964998633E-1,8.124717844E-1,-8.844708896E-1,1.388348376E0
1.242614825E1,1.651843684E0,4.938570035E-1,1.734471273E-1,1.732791448E0
1.243620025E1,2.333986879E0,6.539642930E-1,1.097391400E0,2.660720191E0
1.244625225E1,3.270072311E0,1.591057785E0,1.163531742E0,3.818199039E0
1.245630425E1,3.716196738E0,7.333870232E-1,-6.059166987E-1,3.836027864E0
1.246635725E1,2.439022753E0,-2.008227385E0,3.636759098E-1,3.180262471E0
1.247640925E1,1.776995734E0,-3.764203548E0,3.161533370E0,5.227067576E0
1.248646125E1,2.854886670E0,-4.387550066E0,4.662027140E0,7.009669788E0
1.249651325E1,4.746103669E0,-4.598752665E0,3.721608921E0,7.584484101E0
1.250656525E1,5.866983919E0,-5.846758985E0,-1.424707861E0,8.404515657E0
1.251661725E1,3.423491555E0,-7.026798440E0,-5.015403618E0,9.287112801E0
1.252666925E1,-6.401484919E-1,-5.284093702E0,-1.747656891E0,5.602297828E0
1.253672125E1,-2.525366247E0,-2.187825783E0,4.311902883E0,5.454957636E0
1.254677325E1,-1.365186861E0,7.895729184E-2,7.483080651E0,7.607001081E0
1.255682525E1,7.060816956E-1,1.834935794E0,8.086182353E0,8.321771793E0
1.256687725E1,2.293908893E0,3.317341787E0,7.470822548E0,8.489991995E0
1.257692925E1,3.684218901E0,4.308889813E0,5.855133952E0,8.150005762E0
1.258698125E1,4.091135409E0,4.500593702E0,4.319780252E0,7.460109518E0
1.259703425E1,3.556572429E0,3.929408441E0,3.804517761E0,6.524094844E0
1.260708625E1,2.404935824E0,2.592765933E0,4.148674350E0,5.451389764E0
1.261713825E1,1.093959669E0,8.561341131E-1,4.863931496E0,5.058413089E0
1.262719025E1,-7.045859778E-1,-7.678581136E-1,4.870621880E0,4.980863879E0
1.263724225E1,-2.818424018E0,-2.208966976E0,4.012220217E0,5.377821131E0
1.264729425E1,-4.560071579E0,-3.105373203E0,3.349283956E0,6.454091613E0
1.265734625E1,-5.138836001E0,-2.620562426E0,2.761048214E0,6.395183353E0
1.266739825E1,-4.489024985E0,-1.241939834E0,1.593555715E0,4.922720761E0
1.267745025E1,-3.104822980E0,2.646058041E-1,3.483689225E-1,3.135490850E0
1.268750225E1,-1.664481856E0,1.250604823E0,-3.526093964E-1,2.111597892E0
1.269755425E1,-1.437736773E-1,1.666518441E0,-7.971205775E-1,1.852931677E0
1.270760625E1,9.676317447E-1,1.396088226E0,-1.450588953E0,2.233737191E0
1.271765825E1,1.703423143E0,7.584294784E-1,-1.960453295E0,2.705594722E0
1.272771025E1,2.390365148E0,1.740049517E-1,-2.259468793E0,3.293830975E0
1.273776325E1,2.859470302E0,-3.481812268E-1,-2.411453277E0,3.756714986E0
1.274781525E1,3.011214904E0,-5.812015414E-1,-1.925951068E0,3.621394475E0
1.275786725E1,3.057768681E0,-4.878571755E-1,-1.616191018E0,3.492853753E0
1.276791925E1,3.052648274E0,-2.094805938E-1,-1.281855998E0,3.317483746E0
1.277797125E1,2.653591009E0,-2.672195095E-1,-1.017924670E0,2.854666730E0
1.278802325E1,2.048749759E0,-1.622994107E-1,-7.945319420E-1,2.203405928E0
1.279807525E1,1.400674782E0,3.634746194E-1,-4.068241221E-1,1.503166494E0
1.280812725E1,2.858434761E-1,6.459454215E-1,3.796304762E-2,7.073847421E-1
1.281817925E1,-7.268542215E-1,6.298474520E-1,4.096768324E-1,1.045399435E0
1.282823125E1,-1.206789589E0,5.388776404E-1,6.068044522E-1,1.454283971E0
1.283828325E1,-1.234156020E0,5.893209851E-1,4.612847963E-1,1.443337788E0
1.284833525E1,-1.211310949E0,3.285901308E-1,2.587549339E-1,1.281483439E0
1.285838725E1,-1.155474425E0,-7.422630966E-2,1.459318846E-3,1.157856995E0
1.286844025E1,-1.043698466E0,-2.837425715E-1,-6.219472790E-1,1.247651695E0
1.287849225E1,-9.324394003E-1,-1.747060329E-1,-1.483209693E0,1.760646593E0
1.288854425E1,-9.042493889E-1,2.189811498E-1,-2.349524685E0,2.527031054E0
1.289859625E1,-1.186792989E0,7.212271535E-1,-3.223918191E0,3.510312622E0
1.290864825E1,-1.855998342E0,1.230069986E0,-3.946659189E0,4.531436943E0
1.291870025E1,-2.786557862E0,1.644161612E0,-4.266487851E0,5.354539262E0
1.292875225E1,-3.813472772E0,1.823657684E0,-3.938498230E0,5.777548809E0
1.293880425E1,-4.700027317E0,1.560030119E0,-3.137677315E0,5.862505410E0
1.294885625E1,-5.269565125E0,9.745004690E-1,-2.525394314E0,5.924152616E0
1.295890825E1,-5.393865820E0,4.533498323E-1,-2.238225274E0,5.857385674E0
1.296896025E1,-5.099294790E0,7.476717710E-2,-2.031295236E0,5.489495225E0
1.297901225E1,-4.767679602E0,-3.068455052E-1,-1.820700163E0,5.112716698E0
1.298906425E1,-4.535662377E0,-7.259113580E-1,-1.612774928E0,4.868287530E0
1.299911625E1,-4.207447930E0,-1.113678235E0,-1.954255831E0,4.770955161E0
1.300916925E1,-3.823861813E0,-1.481138316E0,-3.183771208E0,5.191540136E0
1.301922125E1,-3.572010832E0,-1.763566434E0,-5.107755711E0,6.477545550E0
1.302927325E1,-3.546783313E0,-2.023712566E0,-7.435832809E0,8.483318572E0
1.303932525E1,-4.289425309E0,-2.564221580E0,-9.158364068E0,1.043312198E1
1.304937725E1,-5.527238470E0,-3.116071268E0,-9.047552315E0,1.105072252E1
1.305942925E1,-6.112797942E0,-2.768605741E0,-7.617015803E0,1.015137459E1
1.306948125E1,-5.795536791E0,-1.644851584E0,-6.560985267E0,8.907317840E0
1.307953325E1,-4.864670877E0,-4.870257014E-1,-6.495153805E0,8.129528875E0
1.308958525E1,-3.372561137E0,3.495494753E-1,-8.061305375E0,8.745341491E0
1.309963725E1,-2.290458744E0,7.176176673E-1,-8.538697203E0,8.869640709E0
1.310968925E1,-2.169594457E0,9.753933388E-1,-5.418709470E0,5.917849660E0
1.311974125E1,-2.986246709E0,2.960310799E-1,-3.891906738E-1,3.026016058E0
1.312979325E1,-5.425589889E0,-2.107456389E0,3.396973262E0,6.739274844E0
1.313984625E1,-6.278063060E0,-4.775472479E0,5.905920528E0,9.853888089E0
1.314989825E1,-6.196450548E0,-6.951814916E0,7.267003813E0,1.181241188E1
1.315995025E1,-6.349025454E0,-9.284323034E0,7.602625805E0,1.357603394E1
1.317000225E1,-6.000750672E0,-1.149518860E1,7.172719799E0,1.481878129E1
1.318005425E1,-4.978690120E0,-1.139447616E1,7.421363289E0,1.448095561E1
1.319010625E1,-2.508769510E0,-8.627169669E0,8.596803324E0,1.243491087E1
1.320015825E1,-2.057886618E-1,-4.736974996E0,8.831604116E0,1.002389706E1
1.321021025E1,1.312679449E0,-1.839605965E0,8.795082407E0,9.080790273E0
1.322026225E1,1.778986126E0,8.278838754E-1,7.652357544E0,7.899921476E0
1.323031425E1,-2.362257582E-1,3.553898497E0,-2.092712635E0,4.131034169E0
1.324036625E1,-1.551662169E0,4.681560933E0,-5.495844769E0,7.384373906E0
1.325041825E1,3.869687319E-2,4.294070045E0,-1.243722504E0,4.470724848E0
1.326047025E1,1.100957617E0,3.106963645E0,9.446948719E-1,3.428961821E0
1.327052325E1,2.233734612E0,1.768568727E0,3.959838520E0,4.878291378E0
1.328057525E1,3.158217414E0,1.107922820E0,6.138411670E0,6.991561202E0
1.329062725E1,3.689497182E0,8.447922689E-1,7.618039066E0,8.506502374E0
1.330067925E1,3.941679407E0,7.382220858E-1,7.837710772E0,8.804062615E0
1.331073125E1,4.256624476E0,6.990597743E-1,7.266927799E0,8.450785533E0
1.332078325E1,4.547014162E0,5.626968580E-1,6.703223466E0,8.119431653E0
1.333083525E1,4.886470758E0,6.184225774E-1,6.143240300E0,7.873972590E0
1.334088725E1,5.065322467E0,7.057905042E-1,5.891311845E0,7.801486216E0
1.335093842E1,5.156015705E0,9.693186665E-1,5.499264221E0,7.600393648E0
1.336099042E1,5.056951008E0,1.330093042E0,4.487587155E0,6.890597904E0
1.337104242E1,4.970963024E0,1.845628012E0,3.280780901E0,6.235410129E0
1.338109442E1,5.308301175E0,2.436976227E0,2.859620576E0,6.503410208E0
1.339114642E1,6.114819909E0,2.943074377E0,2.913245683E0,7.385100521E0
1.340119842E1,6.486822107E0,3.163955871E0,3.328652348E0,7.947918235E0
1.341125142E1,6.031287755E0,2.868165697E0,3.792672472E0,7.680310601E0
1.342130342E1,4.859744305E0,2.446460411E0,3.976230312E0,6.738893882E0
1.343135542E1,3.409342462E0,2.409532320E0,3.595635338E0,5.509814472E0
1.344140742E1,1.839429964E0,2.340129964E0,2.543423034E0,3.915189851E0
1.345145942E1,2.548696053E-1,1.759442977E0,8.160574432E-1,1.956156399E0
1.346151142E1,-1.296292042E0,5.945513195E-1,-2.035526720E0,2.485404063E0
1.347156342E1,-3.005906217E0,-8.426475102E-1,-5.518804446E0,6.340562241E0
1.348161542E1,-4.126114622E0,-2.414729326E0,-8.874130915E0,1.007997714E1
1.349166742E1,-4.315521140E0,-3.984095110E0,-1.077149977E1,1.226873848E1
1.350171942E1,-3.803967538E0,-4.951788250E0,-8.863945066E0,1.084250423E1
1.351177142E1,-2.886836441E0,-4.960581293E0,-4.874020574E0,7.529758825E0
1.352182342E1,-1.487473190E0,-3.938708437E0,-2.947264491E0,5.139296511E0
1.353187542E1,-2.155441564E-1,-2.482824245E0,-3.193904725E0,4.051160687E0
1.354192842E1,-1.575204813E-1,-1.548349137E0,-2.931663535E0,3.319163876E0
1.355198042E1,6.537888765E-2,-8.540144974E-1,-1.796944095E0,1.990633879E0
1.356203242E1,8.369020361E-1,-4.344218105E-1,-8.332071805E-1,1.258316945E0
1.357208442E1,1.817257907E0,-2.035140949E-1,-3.252513707E-1,1.857318697E0
1.358213642E1,2.783385748E0,-7.024733788E-1,-1.004834362E0,3.041446558E0
1.359218842E1,2.760390987E0,-3.306055491E0,-1.961379347E0,4.732522610E0
1.360224042E1,7.879011995E-1,-5.482866874E0,-7.221087675E-1,5.586059303E0
1.361229242E1,-1.612682542E0,-6.523501691E0,-1.071547730E0,6.804780220E0
1.362234442E1,-2.430201643E0,-5.618246289E0,-6.366284680E-1,6.154337267E0
1.363239642E1,-1.037076786E0,-3.281617053E0,1.287115130E0,3.674398468E0
1.364244842E1,8.681039482E-1,-2.381608357E0,4.279040362E0,4.973514778E0
1.365250042E1,2.771272656E0,-1.550183408E0,6.658659496E0,7.377043244E0
1.366255242E1,3.657067355E0,-6.396450466E-1,6.884677770E0,7.821897175E0
1.367260442E1,4.232346252E0,2.334611946E-1,6.983599795E0,8.169328309E0
1.368265742E1,4.608264331E0,1.508465863E0,7.197892063E0,8.678779842E0
1.369270942E1,4.779514659E0,2.575540620E0,6.837421743E0,8.730836498E0
1.370276142E1,4.599255525E0,3.120861307E0,5.854475555E0,8.072658219E0
1.371281342E1,3.900559448E0,2.944356086E0,4.339233938E0,6.535483757E0
1.372286542E1,2.840867386E0,1.854928009E0,3.441053667E0,4.832404760E0
1.373291742E1,1.497090690E0,5.045474678E-1,3.830887535E0,4.143856656E0
1.374296942E1,-1.051007777E-1,-4.752991104E-1,4.852956272E0,4.877308684E0
1.375302142E1,-1.479140908E0,-9.631960469E-1,5.445914226E0,5.724821936E0
1.376307342E1,-2.940325601E0,-9.980027676E-1,5.631092037E0,6.430452682E0
1.377312542E1,-4.539350216E0,-8.880031925E-1,4.910028605E0,6.745563799E0
1.378317742E1,-5.354700585E0,-8.151281744E-1,2.954213322E0,6.169653852E0
1.379322942E1,-4.794634974E0,-3.172886324E-1,1.006324525E0,4.909367134E0
1.380328142E1,-3.629922241E0,3.029834193E-1,-1.590561429E-2,3.642579775E0
1.381333442E1,-2.378319883E0,5.194818413E-1,-4.950984039E-1,2.484228106E0
1.382338642E1,-7.238198090E-1,7.959867293E-1,-6.860228954E-1,1.275984875E0
1.383343842E1,7.681165606E-1,1.041634691E0,-3.211331767E-1,1.333466309E0
1.384349042E1,1.625452861E0,8.619561857E-1,1.342392075E-1,1.844745412E0
1.385354242E1,2.563007698E0,5.840327632E-1,1.885790636E-1,2.635462918E0
1.386359442E1,3.309666731E0,2.410625750E-1,-3.069116519E-1,3.332596555E0
1.387364642E1,3.404064766E0,-2.771697164E-1,-1.264460385E0,3.641886880E0
1.388369842E1,3.320183533E0,-6.112661701E-1,-1.269058489E0,3.606629240E0
1.389375042E1,3.224510806E0,-4.816784227E-1,-1.007630208E0,3.412448194E0
1.390380242E1,2.914554582E0,-1.875775087E-1,-9.157926697E-1,3.060798907E0
1.391385442E1,1.912428943E0,-2.195494992E-1,-1.033944287E0,2.185092042E0
1.392390642E1,7.992757881E-1,-5.365405083E-3,-1.190334063E0,1.433794181E0
1.393395842E1,7.804746509E-2,5.286999768E-1,-6.019864927E-1,8.049862171E-1
1.394401042E1,-5.772412223E-1,6.731367284E-1,2.298819678E-1,9.160601524E-1
1.395406342E1,-1.093554457E0,6.003271991E-1,5.557315086E-1,1.365683568E0
1.396411542E1,-1.277090078E0,4.237459642E-1,3.766599445E-1,1.397280367E0
1.397416742E1,-1.368805118E0,3.054468513E-2,2.084536766E-1,1.384923595E0
1.398421942E1,-1.347855421E0,-2.704506809E-1,3.069687353E-1,1.408576448E0
1.399427142E1,-1.290579020E0,-2.723527801E-1,2.566411655E-1,1.343739161E0
1.400432342E1,-1.285080591E0,-1.088254541E-1,-2.021911624E-1,1.305433403E0
1.401437542E1,-1.383402107E0,1.824325436E-1,-9.445902067E-1,1.685032249E0
1.402442742E1,-1.626518809E0,5.879860657E-1,-1.825873779E0,2.514976363E0
1.403447942E1,-1.992611226E0,9.782076037E-1,-2.569419170E0,3.395482953E0
1.404453142E1,-2.492088281E0,1.232287835E0,-3.101909897E0,4.165439030E0
1.405458342E1,-2.916583566E0,1.479135060E0,-3.360521135E0,4.689072672E0
1.406463542E1,-3.290358933E0,1.631329313E0,-3.317703145E0,4.949227353E0
1.407468742E1,-3.578138714E0,1.500218366E0,-2.919700132E0,4.855757476E0
1.408474042E1,-3.676352934E0,1.125103694E0,-2.415495896E0,4.540490022E0
1.409479242E1,-3.550287257E0,6.614703637E-1,-2.209139469E0,4.233483181E0
1.410484442E1,-3.361805184E0,2.574885732E-1,-2.086346771E0,3.964956155E0
1.411489642E1,-3.537120204E0,-5.112571478E-2,-1.865888615E0,3.999421646E0
1.412494842E1,-4.117955418E0,-2.300394040E-1,-1.521726471E0,4.396149042E0
1.413500042E1,-4.825714095E0,-2.998715311E-1,-1.278350153E0,5.001161722E0
1.414505242E1,-5.270293103E0,-3.819681931E-1,-1.408271777E0,5.468557259E0
1.415510442E1,-5.462089963E0,-4.677392453E-1,-1.877223442E0,5.794581488E0
1.416515642E1,-5.858294957E0,-1.005871366E0,-2.296067685E0,6.372073746E0
1.417520842E1,-6.596308882E0,-1.971401621E0,-2.490353705E0,7.321173184E0
1.418526042E1,-7.197057080E0,-2.658209724E0,-2.691552887E0,8.130692867E0
1.419531242E1,-7.123000925E0,-2.869000095E0,-3.225067169E0,8.328827166E0
1.420536442E1,-5.971594700E0,-2.565504459E0,-4.215358336E0,7.746676855E0
1.421541642E1,-4.323728584E0,-1.918921106E0,-5.377885380E0,7.162299787E0
1.422546942E1,-2.861452801E0,-1.364134362E0,-6.325312071E0,7.075192399E0
1.423552142E1,-1.828481053E0,-1.056968429E0,-6.545519382E0,6.877815729E0
1.424557342E1,-1.009918516E0,-6.896878570E-1,-6.975773882E0,7.082162523E0
1.425562542E1,4.838424772E-2,-1.671806663E-1,-8.200954426E0,8.202800979E0
1.426567742E1,4.087092644E-1,3.340490913E-1,-7.929913176E0,7.947462176E0
1.427572942E1,-3.664526063E-1,5.568209910E-1,-5.121476203E0,5.164673816E0
1.428578142E1,-2.031606015E0,-4.097535771E-1,-4.015312225E-1,2.111053841E0
1.429583342E1,-3.856114762E0,-2.133050237E0,2.912816790E0,5.282426149E0
1.430588542E1,-4.361987501E0,-3.741711064E0,4.818988627E0,7.499999202E0
1.431593742E1,-4.539822087E0,-5.096212723E0,5.853311960E0,8.991252949E0
1.432598942E1,-4.658455368E0,-6.054589494E0,6.285227069E0,9.892590139E0
1.433604142E1,-4.180599855E0,-6.351996424E0,6.431523235E0,9.959405848E0
1.434609837E1,-3.195739289E0,-5.601350759E0,7.236628697E0,9.693125132E0
1.435615137E1,-1.895377585E0,-3.216338738E0,7.944843457E0,8.778258860E0
1.436620337E1,-6.196978551E-1,-7.860488015E-1,7.896703330E0,7.959888293E0
1.437625537E1,-1.821395981E-1,5.077909184E-1,6.196965687E0,6.220402734E0
1.438630737E1,-9.861136240E-1,1.528729389E0,2.142998543E0,2.811027638E0
1.439635937E1,-2.160250314E0,2.234749689E0,-3.291934173E-1,3.125564893E0
1.440641137E1,-2.056624789E0,2.755922545E0,9.549520576E-1,3.568858085E0
1.441646337E1,-1.593790188E0,2.993811836E0,2.274863781E0,4.083880716E0
1.442651537E1,-1.149126980E0,3.006167003E0,3.527135206E0,4.774747703E0
1.443656737E1,-7.061313969E-1,2.879279500E0,4.946436878E0,5.766811058E0
1.444661937E1,-3.331696701E-1,2.691609605E0,6.293150046E0,6.852700329E0
1.445667137E1,1.329498965E-1,2.594348189E0,7.255864867E0,7.706873112E0
1.446672337E1,5.000532979E-1,2.406678295E0,7.463729875E0,7.858079750E0
1.447677537E1,5.309757131E-1,2.209317225E0,7.163909215E0,7.515624594E0
1.448682738E1,7.525752461E-1,2.065760479E0,6.568679618E0,6.926852661E0
1.449688037E1,1.099534990E0,1.726876910E0,6.394056616E0,6.713794833E0
1.450693237E1,1.163848515E0,1.315253393E0,7.009139264E0,7.225819543E0
1.451698437E1,1.587527820E0,1.170019666E0,7.350502052E0,7.610458003E0
1.452703638E1,2.356098125E0,1.360747070E0,7.141641848E0,7.642373928E0
1.453708837E1,3.040216509E0,1.623199929E0,6.930994735E0,7.740567321E0
1.454714038E1,3.704702282E0,1.793611182E0,6.703818712E0,7.866577744E0
1.455719237E1,4.401779850E0,2.020658566E0,6.317390263E0,7.960411210E0
1.456724438E1,5.355579422E0,2.190245946E0,5.428158571E0,7.933745251E0
1.457729637E1,6.201904830E0,1.747782460E0,4.435061617E0,7.822284743E0
1.458734838E1,6.575592197E0,5.538511902E-1,3.689968176E0,7.560491321E0
1.459740037E1,6.676014617E0,-5.351751834E-1,3.104520971E0,7.381980365E0
1.460745237E1,6.807043118E0,-1.471910825E0,2.096195529E0,7.272990663E0
1.461750437E1,7.003879693E0,-2.594455193E0,3.781791973E-1,7.478539163E0
1.462755637E1,6.050099418E0,-3.837017171E0,-2.329344628E0,7.533408931E0
1.463760937E1,1.756198357E0,-4.841957075E0,-7.520397581E0,9.115106185E0
1.464766137E1,-3.710323795E0,-5.443073648E0,-1.501818866E1,1.639937633E1
1.465771337E1,-5.041851159E0,-5.485040284E0,-1.575073251E1,1.742387743E1
1.466776537E1,-3.747919638E0,-4.644719381E0,-1.002046000E1,1.166318732E1
1.467781737E1,-3.108080463E0,-3.334430859E0,-4.966689879E0,6.741409473E0
1.468786937E1,-2.254237874E0,-2.059409233E0,-1.907667263E0,3.600270708E0
1.469792137E1,-1.829536475E0,-9.436815494E-1,-1.063280937E0,2.316960278E0
1.470797337E1,-1.777486315E0,-1.028525233E-3,-1.139913376E0,2.111601564E0
1.471802537E1,-1.182899913E0,8.639202654E-1,-6.221332204E-1,1.591433370E0
1.472807737E1,-3.070612675E-1,1.772157163E0,7.446765348E-2,1.800103626E0
1.473812937E1,-4.681280851E-2,1.522241904E0,1.151864938E-1,1.527311291E0
1.474818137E1,-1.262350125E0,-7.496469605E-1,5.783796751E-1,1.577980181E0
1.475823337E1,-2.854248739E0,-2.648189936E0,1.367891929E0,4.126835849E0
1.476828637E1,-2.544617035E0,-3.130893960E0,1.978342266E0,4.493485392E0
1.477833837E1,-1.112856116E0,-2.342617954E0,3.667620702E0,4.491964963E0
1.478839037E1,3.859840608E-1,-2.068454876E0,4.270475360E0,4.760719386E0
1.479844237E1,1.914423428E0,-1.687137478E0,3.921991832E0,4.679045828E0
1.480849437E1,3.597512879E0,-7.306446791E-1,3.307331353E0,4.941091098E0
1.481854637E1,4.121919830E0,-3.503675008E-1,3.280168698E0,5.279440042E0
1.482859837E1,4.450923359E0,-1.643704945E-1,4.548708100E0,6.366198378E0
1.483865037E1,4.981892640E0,4.896049082E-1,5.597286944E0,7.509233541E0
1.484870237E1,5.005056970E0,1.372521023E0,5.898063040E0,7.856306820E0
1.485875437E1,4.632411577E0,1.427121738E0,5.515127717E0,7.342516409E0
1.486880637E1,3.964841983E0,9.619272012E-1,4.788902364E0,6.291173320E0
1.487885838E1,3.276230013E0,3.618315518E-1,4.317522057E0,5.431905917E0
1.488891037E1,2.361335476E0,-5.701415330E-1,3.806259062E0,4.515370931E0
1.489896238E1,1.103461395E0,-1.192281185E0,3.459010466E0,3.821506886E0
1.490901537E1,-1.429907352E-1,-1.300188042E0,3.052103899E0,3.320583308E0
1.491906738E1,-1.343765586E0,-1.153809430E0,3.097406956E0,3.568040359E0
1.492911937E1,-2.264708483E0,-1.076693426E0,2.849571551E0,3.795817603E0
1.493917138E1,-2.753615819E0,-8.559984577E-1,2.166563553E0,3.606817304E0
1.494922337E1,-2.658125525E0,-2.239951372E-1,1.949183371E0,3.303804010E0
1.495927538E1,-2.357161149E0,5.690136051E-1,1.735469978E0,2.981919048E0
1.496932737E1,-1.957251944E0,1.233102352E0,1.487983067E0,2.750539982E0
1.497937937E1,-1.564945289E0,1.436269122E0,1.145421672E0,2.413278591E0
1.498943137E1,-1.024991176E0,1.220773498E0,5.556824651E-1,1.688098885E0
1.499948337E1,-1.848030049E-1,8.713930070E-1,1.869670594E-1,9.101838301E-1
1.500953537E1,8.745019716E-1,5.233211231E-1,-1.842317319E-1,1.035644740E0
1.501958737E1,1.634882081E0,8.562019408E-2,-8.513214161E-1,1.845242095E0
1.502963937E1,2.168641654E0,-2.947394300E-1,-1.642222822E0,2.736196950E0
1.503969237E1,2.723387468E0,-3.640195799E-1,-2.097708496E0,3.456838221E0
1.504974437E1,3.093409799E0,-1.014392513E-1,-2.178335752E0,3.784788073E0
1.505979637E1,3.004595271E0,1.940246487E-1,-2.008935483E0,3.619538656E0
1.506984837E1,2.437551593E0,3.374369681E-1,-1.537374059E0,2.901558284E0
1.507990037E1,1.830167974E0,6.856363213E-1,-6.109971982E-1,2.047664415E0
1.508995237E1,1.177809911E0,7.150150716E-1,1.941677593E-1,1.391468238E0
1.510000437E1,3.805888349E-1,2.057968479E-1,7.777491175E-1,8.899965694E-1
1.511005637E1,-2.272809801E-1,-4.427868372E-1,1.327031878E0,1.417296875E0
1.512010837E1,-6.048269239E-1,-9.341675448E-1,1.712155229E0,2.042048025E0
1.513016037E1,-9.713467732E-1,-1.318533681E0,1.860089346E0,2.478301434E0
1.514021237E1,-1.445631099E0,-1.496503630E0,1.495407277E0,2.562345666E0
1.515026437E1,-1.584081179E0,-1.038235120E0,7.215298931E-1,2.026783346E0
1.516031637E1,-1.772402161E0,-2.659968567E-1,-5.211532679E-1,1.866484524E0
1.517036837E1,-2.216410774E0,3.208396465E-1,-2.010147611E0,3.009336840E0
1.518042137E1,-2.592456030E0,7.373280466E-1,-3.408119225E0,4.345084299E0
1.519047337E1,-2.749746131E0,9.611395812E-1,-4.371635992E0,5.253198485E0
1.520052537E1,-2.622788169E0,9.128433341E-1,-4.839640993E0,5.579823086E0
1.521057737E1,-2.206633060E0,6.327213585E-1,-4.742065582E0,5.268467686E0
1.522062937E1,-1.718269224E0,3.087189531E-1,-3.981692489E0,4.347600671E0
1.523068137E1,-1.647312969E0,1.141516829E-1,-3.093008973E0,3.506190972E0
1.524073337E1,-2.062880433E0,4.072468758E-2,-2.226364489E0,3.035429627E0
1.525078538E1,-2.972723268E0,-6.001932979E-2,-1.325040755E0,3.255214118E0
1.526083737E1,-4.096603725E0,-1.730594569E-1,-5.751584440E-1,4.140400813E0
1.527088938E1,-4.984320989E0,-1.754164696E-1,-2.532063648E-1,4.993830205E0
1.528094137E1,-5.489307582E0,-2.047168672E-2,-4.682052684E-1,5.509276994E0
1.529099338E1,-5.687783132E0,6.026081979E-2,-1.302574875E0,5.835341432E0
1.530104537E1,-6.003567860E0,-4.624738276E-1,-2.393263028E0,6.479538333E0
1.531109838E1,-6.513549145E0,-1.547187880E0,-3.368830321E0,7.494606763E0
1.532115037E1,-6.854942340E0,-2.395974966E0,-4.142331583E0,8.360014441E0
1.533120238E1,-6.549712420E0,-2.657619156E0,-4.917575607E0,8.610703932E0
1.534125437E1,-5.303487747E0,-2.343570465E0,-5.682527654E0,8.118523594E0
1.535130204E1,-3.873284234E0,-2.130948747E0,-6.226878288E0,7.636575577E0
1.536135404E1,-2.998427628E0,-2.350935034E0,-6.361324487E0,7.415113823E0
1.537140604E1,-2.103091150E0,-2.422396780E0,-6.152062579E0,6.938218253E0
1.538145804E1,-1.015682701E0,-1.871251096E0,-5.807713033E0,6.185686921E0
1.539151004E1,3.098340172E-1,-1.131567791E0,-5.879347272E0,5.995262057E0
1.540156204E1,2.214801913E0,-7.454504138E-1,-7.362860727E0,7.724814685E0
1.541161404E1,2.875723808E0,-8.904753953E-1,-7.340068865E0,7.933432094E0
1.542166604E1,1.732715062E0,-1.295124353E0,-4.051060932E0,4.592465922E0
1.543171804E1,-1.543474898E-1,-2.521418792E0,6.712832341E-1,2.613808917E0
1.544177004E1,-1.645919578E0,-4.238361867E0,3.973102344E0,6.038071282E0
1.545182304E1,-1.699255832E0,-5.666144925E0,5.979418275E0,8.411070776E0
1.546187504E1,-1.601108564E0,-6.560259043E0,7.000196532E0,9.726422715E0
1.547192704E1,-1.440310718E0,-7.423531437E0,7.248352364E0,1.047482343E1
1.548197904E1,-7.340740710E-1,-7.438799686E0,7.425659823E0,1.053636699E1
1.549203104E1,8.627204168E-1,-5.821193204E0,8.405247370E0,1.026054385E1
1.550208304E1,2.557548738E0,-3.215524220E0,7.787217726E0,8.804624436E0
1.551213504E1,2.519392732E0,-1.313363573E0,5.343398502E0,6.051790740E0
1.552218704E1,8.469715261E-1,-4.207983828E-1,1.521894579E0,1.791813370E0
1.553223904E1,-8.003709716E-1,1.255613548E-1,-1.477011352E0,1.684613273E0
1.554229104E1,-7.608630896E-1,7.117570031E-1,-4.698190999E-1,1.142908859E0
1.555234304E1,-3.759011221E-1,1.277591477E0,9.666874194E-1,1.645608156E0
1.556239504E1,3.642827046E-1,1.607151076E0,1.972041453E0,2.569938513E0
1.557244704E1,1.417149312E0,1.745155891E0,3.220854542E0,3.927821946E0
1.558250004E1,2.483974392E0,1.575529919E0,4.602295493E0,5.462009439E0
1.559255204E1,3.245407001E0,1.351693826E0,5.206050915E0,6.281935126E0
1.560260404E1,3.829041569E0,1.168290060E0,5.240770512E0,6.594856826E0
1.561265604E1,4.243198684E0,1.026681021E0,4.877457568E0,6.545869027E0
1.562270804E1,4.443248888E0,9.214685619E-1,4.522791779E0,6.406809695E0
1.563276004E1,4.545992069E0,8.081477684E-1,4.464012351E0,6.422347933E0
1.564281204E1,4.813815011E0,8.829009122E-1,4.412148718E0,6.589338759E0
1.565286404E1,5.135658039E0,9.857072425E-1,4.143120372E0,6.671735058E0
1.566291604E1,5.169592940E0,9.915901262E-1,3.749472366E0,6.462699526E0
1.567296804E1,5.194598558E0,1.066582421E0,3.029773382E0,6.107452741E0
1.568302004E1,5.233553293E0,1.263574532E0,2.601294097E0,5.979417334E0
1.569307204E1,5.073602709E0,1.578113219E0,2.565258584E0,5.900206554E0
1.570312404E1,4.793071429E0,1.942448548E0,2.885288391E0,5.922122017E0
1.571317604E1,4.579027668E0,2.063808678E0,3.379565517E0,6.053780944E0
1.572322904E1,4.188932430E0,1.783318913E0,3.658735858E0,5.840695962E0
1.573328104E1,3.677344329E0,1.165202730E0,3.223132325E0,5.026842021E0
1.574333304E1,2.957578980E0,4.879711962E-1,2.277905649E0,3.764869647E0
1.575338504E1,1.773309649E0,2.611600399E-2,7.300035319E-1,1.917867126E0
1.576343704E1,-3.160537004E-2,-3.504727507E-1,-1.472402869E0,1.513869299E0
1.577348904E1,-2.105735554E0,-7.405358291E-1,-3.955309559E0,4.541694535E0
1.578354104E1,-3.873092737E0,-1.299322654E0,-6.766450578E0,7.904045808E0
1.579359304E1,-4.979526272E0,-2.010804838E0,-1.015595168E1,1.148835813E1
1.580364504E1,-5.196051591E0,-2.684700535E0,-1.304571700E1,1.429675841E1
1.581369704E1,-3.785655813E0,-2.949637876E0,-1.216156653E1,1.307422097E1
1.582374904E1,-1.238437936E0,-2.687096139E0,-7.816028711E0,8.357303333E0
1.583380104E1,1.007065952E0,-2.500107445E0,-4.077396206E0,4.887727375E0
1.584385304E1,2.314102837E0,-2.260619525E0,-1.574016513E0,3.597638192E0
1.585390604E1,2.365084711E0,-2.081839153E0,-1.574055836E-2,3.150861424E0
1.586395804E1,1.923160338E0,-1.843376250E0,5.524367487E-1,2.720619055E0
1.587401004E1,1.780529791E0,-1.023294314E0,9.117259312E-1,2.246922732E0
1.588406204E1,1.884697938E0,-1.002514479E0,-5.125654623E-2,2.135356839E0
1.589411404E1,5.164401197E-1,-2.744062053E0,-1.681050965E0,3.259220658E0
1.590416604E1,-1.731844704E0,-4.211625473E0,-1.238851919E0,4.719303898E0
1.591421804E1,-2.777813351E0,-4.914306428E0,1.188807062E0,5.768874840E0
1.592427004E1,-2.746291596E0,-4.869163000E0,3.533544924E0,6.613380798E0
1.593432204E1,-1.565275072E0,-3.753232418E0,3.476452711E0,5.350005895E0
1.594437404E1,8.934288239E-1,-2.384755914E0,2.209644230E0,3.371617335E0
1.595442604E1,2.744749101E0,-1.102474970E0,1.884181044E0,3.507026788E0
1.596447804E1,4.023328173E0,-1.688453686E-1,3.987951933E0,5.667401430E0
1.597453004E1,5.446438136E0,3.370510519E-1,6.184850256E0,8.248009728E0
1.598458204E1,6.853640165E0,7.610817754E-1,6.520573990E0,9.490495990E0
1.599463504E1,7.961967028E0,9.158891487E-1,5.932575645E0,9.971320157E0
1.600468704E1,8.402535431E0,4.663008302E-1,4.720564785E0,9.649029486E0
1.601473904E1,7.944382111E0,-3.666455644E-1,3.574661375E0,8.719279790E0
1.602479104E1,6.139514455E0,-1.309665209E0,3.381899725E0,7.130645584E0
1.603484304E1,3.960930195E0,-2.068432072E0,4.027380878E0,6.015577776E0
1.604489504E1,2.294992967E0,-2.584588602E0,4.662328856E0,5.803826438E0
1.605494704E1,9.476021075E-1,-2.675009944E0,4.776308631E0,5.555785461E0
1.606499904E1,-3.438946331E-1,-2.300719146E0,4.412094923E0,4.987800489E0
1.607505104E1,-1.579766226E0,-1.807943877E0,3.652563245E0,4.370988521E0
1.608510304E1,-2.373189536E0,-1.292049887E0,2.103307205E0,3.424225852E0
1.609515504E1,-2.548663893E0,-5.897548485E-1,7.061858491E-1,2.709648847E0
1.610520704E1,-2.473730655E0,9.315900922E-2,-2.531839261E-1,2.488397890E0
1.611525904E1,-2.289369115E0,5.768570602E-1,-1.147723648E0,2.625118014E0
1.612531104E1,-1.787848751E0,1.071150851E0,-1.932669080E0,2.842354143E0
1.613536404E1,-1.045374570E0,1.465825628E0,-2.143304060E0,2.799143629E0
1.614541604E1,-2.849997228E-1,1.323874528E0,-1.777843580E0,2.234859370E0
1.615546804E1,6.118625861E-1,1.003105048E0,-8.635151996E-1,1.458168050E0
1.616552004E1,1.351461107E0,7.328017169E-1,1.924108171E-1,1.549344184E0
1.617557204E1,1.833144792E0,5.716156161E-1,7.933888113E-1,2.077650126E0
1.618562404E1,1.528452231E0,2.784911871E-2,1.201655880E0,1.944458447E0
1.619567604E1,1.255246342E0,-4.374430668E-1,1.205477620E0,1.794484915E0
1.620572804E1,1.459115363E0,-4.341434830E-1,1.188371737E0,1.931249749E0
1.621578004E1,1.362069710E0,-3.914687490E-1,1.200159431E0,1.857111827E0
1.622583204E1,1.164500479E0,-5.710449278E-1,9.395749037E-1,1.601547588E0
1.623588404E1,8.888451916E-1,-7.111149788E-1,5.489406985E-1,1.263750837E0
1.624593604E1,6.804673827E-1,-4.802663201E-1,2.790816097E-1,8.783952083E-1
1.625598804E1,5.079026002E-1,-5.419427508E-1,-3.252858692E-1,8.108501052E-1
1.626604104E1,6.871647835E-2,-6.694693547E-1,-1.107120875E0,1.295618695E0
1.627609304E1,-5.630319035E-1,-7.629704261E-1,-2.006488423E0,2.219262172E0
1.628614504E1,-1.052200609E0,-5.373731518E-1,-2.687200804E0,2.935463198E0
1.629619704E1,-1.112369628E0,-1.988410002E-1,-3.084218853E0,3.284708491E0
1.630624904E1,-1.172069115E0,2.976127517E-1,-3.323967851E0,3.537100739E0
1.631630104E1,-1.149631010E0,6.928359979E-1,-3.529826680E0,3.776420205E0
1.632635304E1,-1.054948801E0,6.406402427E-1,-3.698623224E0,3.899121779E0
1.633640504E1,-1.170571643E0,-1.682629859E-1,-3.477663669E0,3.673240395E0
1.634645704E1,-1.176890144E0,-7.681691855E-1,-2.582243576E0,2.939921120E0
1.635650850E1,-1.085430336E0,-5.114384115E-1,-1.200359991E0,1.697230795E0
1.636656050E1,-1.226272804E0,-3.618789142E-1,1.036380967E-1,1.282747907E0
1.637661250E1,-1.418787702E0,-4.210246700E-1,9.630185840E-1,1.765679786E0
1.638666450E1,-1.505427650E0,-6.890481716E-1,1.153959703E0,2.018098806E0
1.639671750E1,-1.322862375E0,-1.114379316E0,4.229475269E-1,1.780643348E0
1.640676950E1,-1.038706405E0,-1.510779022E0,-1.157032708E0,2.167968850E0
1.641682150E1,-9.386868578E-1,-1.681834638E0,-2.993878787E0,3.559917268E0
1.642687350E1,-1.044019770E0,-1.638227858E0,-4.348193042E0,4.762410160E0
1.643692550E1,-1.488321328E0,-1.832733148E0,-5.027474610E0,5.554233711E0
1.644697750E1,-2.441392629E0,-2.528817274E0,-5.043024110E0,6.147146244E0
1.645702950E1,-3.292178294E0,-3.276361576E0,-4.718012475E0,6.620621180E0
1.646708150E1,-3.640166270E0,-3.823566821E0,-4.287519994E0,6.800977974E0
1.647713350E1,-3.505268082E0,-4.183594506E0,-3.962061047E0,6.744426963E0
1.648718550E1,-2.930175419E0,-4.331914394E0,-4.067204509E0,6.625221719E0
1.649723750E1,-2.134535137E0,-4.368354827E0,-4.788807054E0,6.824326864E0
1.650728950E1,-9.651612961E-1,-3.858589303E0,-6.295391868E0,7.446623833E0
1.651734150E1,6.086583120E-1,-2.741788656E0,-8.678126984E0,9.121280498E0
1.652739350E1,2.430773501E0,-1.857335892E0,-1.110723754E1,1.152081083E1
1.653744650E1,3.906452272E0,-1.339915195E0,-9.501895589E0,1.036058695E1
