"Time (s)","Linear Acceleration x (m/s^2)","Linear Acceleration y (m/s^2)","Linear Acceleration z (m/s^2)","Absolute acceleration (m/s^2)"
-1.963666640E-3,-2.314808889E-1,3.595186856E-1,-2.854797792E-1,5.141359661E-1
8.090333431E-3,-2.352565822E-1,3.149438989E-1,-8.363740325E-1,9.241519578E-1
1.814333338E-2,-1.691921085E-1,2.387137485E-1,-8.876576221E-1,9.346369762E-1
2.819633333E-2,-2.410076112E-3,1.871649876E-1,-7.454884207E-1,7.686283409E-1
3.824933339E-2,2.069424637E-1,1.585893524E-1,-7.000298274E-1,7.470057062E-1
4.830233334E-2,2.318668782E-1,9.940792859E-2,-6.261946964E-1,6.751029427E-1
5.835533340E-2,-8.741345472E-1,1.386553171E-1,-3.474930096E-1,9.508353671E-1
6.840833335E-2,-1.077677220E0,6.639074832E-1,-9.393049085E-1,1.576215420E0
7.846133341E-2,-5.952423873E-1,1.152520996E0,-1.663673771E0,2.109603888E0
8.851533337E-2,-6.767844408E-1,1.098639196E0,-1.609715080E0,2.063062748E0
9.856833343E-2,-7.100721279E-1,8.907420284E-1,-1.242024034E0,1.685303382E0
1.086213334E-1,-4.249079521E-1,8.874462453E-1,-9.554736292E-1,1.371509191E0
1.186743333E-1,-7.188990846E-2,9.523798674E-1,-6.642097843E-1,1.163344407E0
1.287273334E-1,5.290078327E-2,8.795849562E-1,-4.498941278E-1,9.893800656E-1
1.387803333E-1,1.897229983E-1,6.958832744E-1,-4.421044672E-1,8.459933259E-1
1.488333334E-1,4.162779003E-1,5.846478903E-1,-5.953529727E-1,9.324942939E-1
1.588863333E-1,5.464072461E-1,5.047907120E-1,-9.835116130E-1,1.233154343E0
1.689403334E-1,8.098726970E-1,4.190097195E-1,-1.605680501E0,1.846529936E0
1.789933334E-1,1.129268958E0,2.610796407E-1,-2.078651251E0,2.379958399E0
1.890463334E-1,1.355628563E0,4.842839420E-2,-2.000006200E0,2.416629660E0
1.990993334E-1,1.550892822E0,-1.141703939E-1,-1.409114653E0,2.098548910E0
2.091523333E-1,1.832871434E0,-2.897467849E-1,-6.260812604E-1,1.958404616E0
2.192053334E-1,2.036532879E0,-4.546426517E-1,1.528181505E-1,2.092252254E0
2.292583333E-1,1.745032807E0,-7.532660946E-1,1.018269217E0,2.156251726E0
2.393123334E-1,1.524715568E0,-1.552392486E0,1.291804304E0,2.530501602E0
2.493653334E-1,2.182020375E0,-1.979261448E0,1.219659603E0,3.188457048E0
2.594183334E-1,2.989762639E0,-2.588125582E0,1.502697001E0,4.230268661E0
2.694713334E-1,2.457270159E0,-4.088862304E0,2.280018248E0,5.287291819E0
2.795243334E-1,2.155016764E0,-5.558550310E0,3.636081698E0,6.983027203E0
2.895773334E-1,4.531704105E0,-4.695657400E0,4.444234729E0,7.895363376E0
2.996303333E-1,5.468576864E0,-3.233407930E0,2.622175089E0,6.872849624E0
3.096833334E-1,2.847847207E0,-1.714428772E0,7.586645365E-1,3.409555926E0
3.197373333E-1,-3.807271215E-1,-1.306519699E0,2.646174985E-1,1.386351069E0
3.297903334E-1,-5.158355176E-1,-1.243213357E0,2.903762376E-1,1.376947382E0
3.398433333E-1,5.581959638E-1,-7.753174067E-1,5.422684407E-1,1.098523954E0
3.498963334E-1,1.122419237E0,-5.945902035E-1,1.000788381E0,1.617077561E0
3.599493334E-1,1.943063383E0,-8.370537713E-1,1.156495056E0,2.411148096E0
3.700023334E-1,2.923675946E0,-9.412736660E-1,6.177349448E-1,3.132965626E0
3.800553334E-1,2.531297078E0,-8.572442070E-1,4.226355779E-1,2.705726032E0
3.901093333E-1,2.397542020E0,-1.583038328E0,1.096996129E-1,2.875109057E0
4.001623334E-1,2.643300202E0,-2.306004444E0,-1.052102376E0,3.662186759E0
4.102153333E-1,2.619238324E0,-3.026163311E0,-2.474139376E0,4.705256575E0
4.202683334E-1,2.095212027E0,-3.334632003E0,-4.136529683E0,5.711441311E0
4.303213333E-1,1.688922633E0,-2.777080695E0,-4.374923004E0,5.450191569E0
4.403743334E-1,1.548510812E0,-2.561853165E0,-3.054360339E0,4.276691999E0
4.504273334E-1,1.254681794E0,-1.965493887E0,-6.634268421E-1,2.424361317E0
4.604803334E-1,1.316479554E0,-1.179565246E0,1.520170820E-1,1.774148184E0
4.705333334E-1,2.775106090E0,-1.829296447E0,-9.924525905E-1,3.468789623E0
4.805873333E-1,3.264225387E0,-3.558664270E0,-2.283941145E0,5.341876629E0
4.906403334E-1,2.795841779E0,-3.818369523E0,-3.925717093E0,6.148815476E0
5.006933333E-1,2.750162453E0,-4.434159099E0,-4.179317853E0,6.685196942E0
5.107463334E-1,3.266178357E0,-4.637259211E0,-4.586669978E0,7.294493509E0
5.207993333E-1,2.986932587E0,-5.612988473E0,-4.046628742E0,7.536750629E0
5.308523334E-1,1.964809470E0,-4.922506564E0,-2.229810546E0,5.750095842E0
5.409053334E-1,9.668795004E-1,-4.013392291E0,-3.565140939E-1,4.143582502E0
5.509593334E-1,1.673338634E-1,-4.083022397E0,8.295965248E-1,4.169808498E0
5.610123334E-1,-2.648063636E-1,-4.031045328E0,1.725087077E0,4.392650028E0
5.710653333E-1,-5.712679991E-1,-3.987866564E0,1.727410176E0,4.383306146E0
5.811183334E-1,-9.097703299E-1,-3.934851029E0,9.989628804E-1,4.160367954E0
5.911713333E-1,-1.351495897E0,-3.925512733E0,-2.099068558E-1,4.156952281E0
6.012237084E-1,-2.062020892E0,-3.655434228E0,-1.456575918E0,4.442492876E0
6.112767084E-1,-2.912475312E0,-3.043820440E0,-2.453646639E0,4.875216626E0
6.213297084E-1,-3.655110584E0,-2.627440506E0,-2.839761677E0,5.322360696E0
6.313837083E-1,-4.347155161E0,-2.542172022E0,-2.625310366E0,5.679141758E0
6.414367084E-1,-4.982294344E0,-2.239769816E0,-1.785483552E0,5.746979839E0
6.514897083E-1,-5.245761110E0,-1.933348234E0,-7.006554794E-1,5.634426601E0
6.615427084E-1,-5.089800081E0,-1.887208732E0,3.684593707E-1,5.440899188E0
6.715957084E-1,-4.670131965E0,-1.936795168E0,1.561833401E0,5.291562309E0
6.816487084E-1,-4.257007468E0,-1.788821581E0,2.044888843E0,5.050105505E0
6.917017084E-1,-4.019408199E0,-1.519575281E0,1.810812521E0,4.663024050E0
7.017557084E-1,-4.217614192E0,-1.125329543E0,1.321167852E0,4.560714916E0
7.118087084E-1,-4.621760289E0,-5.290300521E-1,1.176916457E0,4.798507405E0
7.218617083E-1,-4.791355271E0,5.899475142E-2,1.503656529E0,5.022105999E0
7.319147084E-1,-4.345069752E0,4.316049144E-1,2.057802418E0,4.827055494E0
7.419677083E-1,-3.481586274E0,9.231320947E-1,2.649597360E0,4.471463073E0
7.520207084E-1,-2.708411871E0,1.491019818E0,2.779693816E0,4.157563310E0
7.620737083E-1,-2.523759432E0,1.669453159E0,2.568732122E0,3.969234213E0
7.721267084E-1,-2.932913085E0,1.309582763E0,2.550775908E0,4.101639174E0
7.821807084E-1,-3.627118501E0,9.260355297E-1,2.664705981E0,4.595017779E0
7.922337084E-1,-4.861841701E0,3.430035174E-1,2.873881350E0,5.658122494E0
8.022867084E-1,-6.165356224E0,-3.014885786E-1,3.120650808E0,6.916717010E0
8.123397083E-1,-6.845620124E0,-4.549420291E-1,3.233507917E0,7.584527710E0
8.223927084E-1,-6.726612328E0,-5.747929931E-2,3.129926831E0,7.419370543E0
8.324457083E-1,-6.010737131E0,3.151514751E-1,3.375941412E0,6.901105834E0
8.424987084E-1,-5.257726268E0,7.800641763E-1,3.892249385E0,6.588003559E0
8.525517083E-1,-4.752505785E0,1.382960057E0,4.571307589E0,6.737636294E0
8.626057084E-1,-4.695152201E0,1.764516606E0,5.228227649E0,7.245159584E0
8.726587084E-1,-5.050148358E0,2.022263042E0,5.763185316E0,7.925140455E0
8.827117084E-1,-5.476546619E0,2.155555000E0,6.054146276E0,8.443439308E0
8.927647084E-1,-6.037652450E0,2.165477141E0,5.973183973E0,8.764785515E0
9.028177083E-1,-6.622269350E0,2.184226822E0,5.613384914E0,8.951837149E0
9.128707084E-1,-6.938459875E0,2.263007528E0,5.394864525E0,9.075681338E0
9.229237083E-1,-6.711821796E0,2.463093401E0,5.673187312E0,9.126907209E0
9.329767084E-1,-5.988302534E0,2.646218839E0,6.232998569E0,9.039497361E0
9.430307084E-1,-4.779358538E0,2.453158981E0,6.490812832E0,8.425610260E0
9.530837084E-1,-2.691780344E0,2.095216997E0,6.202479612E0,7.078585241E0
9.631367084E-1,-1.399244553E-1,2.153957541E0,5.155427476E0,5.589055770E0
9.731897084E-1,1.820256359E0,2.827804121E0,3.931306739E0,5.173488382E0
9.832427084E-1,2.715289074E0,3.320478233E0,2.806222633E0,5.125744426E0
9.932957083E-1,3.143618086E0,3.180941156E0,1.979385409E0,4.890673564E0
1.003348708E0,3.478672314E0,2.890754660E0,1.691638080E0,4.829002274E0
1.013401708E0,3.121692781E0,2.862869581E0,1.753608626E0,4.584335423E0
1.023455708E0,2.463399795E0,2.648484635E0,2.337151392E0,4.306400590E0
1.033508708E0,2.040387071E0,2.471888198E0,2.809179570E0,4.262030094E0
1.043561708E0,2.507989492E0,2.141292180E0,2.497774406E0,4.136909532E0
1.053614708E0,4.419691041E0,1.570565048E0,9.119671288E-1,4.778287090E0
1.063667708E0,6.289036530E0,1.189639998E0,-4.312173901E-1,6.415073829E0
1.073720708E0,7.218074897E0,3.652697146E-1,-1.924691724E0,7.479202191E0
1.083773708E0,6.429483141E0,-9.753550395E-1,-2.490322714E0,6.963567917E0
1.093826708E0,5.187522258E0,-3.124007402E0,-2.964934192E0,6.742450903E0
1.103880708E0,8.139874996E0,2.882028276E-1,-3.507379804E0,8.868051585E0
1.113933708E0,8.698824958E0,4.063892062E0,-3.114276173E0,1.009373521E1
1.123986708E0,5.170870557E0,1.658041733E0,-6.905099756E-1,5.473920782E0
1.134039708E0,3.295519978E0,4.544052547E-1,-7.176436874E-1,3.403226193E0
1.144092708E0,2.596943768E0,9.415005380E-1,-1.556442999E0,3.170655296E0
1.154145708E0,1.868083659E0,1.726301836E0,-1.579482636E0,2.994097525E0
1.164198708E0,1.533908853E0,2.055166494E0,-1.595568327E0,3.020335076E0
1.174252708E0,1.602619484E0,1.091195398E0,-1.562068459E0,2.489810129E0
1.184305708E0,1.898844107E0,-2.505388650E-1,-1.453901986E0,2.404622559E0
1.194358708E0,2.490465971E0,-1.076238805E0,-1.174343097E0,2.956313994E0
1.204411708E0,2.881554651E0,-1.209858793E0,-4.169352005E-1,3.152927286E0
1.214464708E0,3.573919948E0,-1.492548573E-1,2.185249939E-1,3.583703947E0
1.224517708E0,5.178760205E0,1.962364165E0,-1.437755046E-1,5.539955033E0
1.234570708E0,6.151374362E0,2.736585803E0,-1.067992769E0,6.816811348E0
1.244623708E0,5.323889852E0,1.549282352E0,-8.270173180E-1,5.606071405E0
1.254677708E0,3.973474227E0,3.061549491E-1,-6.045904040E-1,4.030850759E0
1.264730708E0,2.534748105E0,-1.870073467E0,-6.560727990E-1,3.217538538E0
1.274783708E0,9.366894490E-1,-4.571813373E0,-1.294818946E-1,4.668579035E0
1.284836708E0,-1.109503908E0,-6.674731738E0,4.155627859E-1,6.779065948E0
1.294889708E0,-3.338303470E0,-7.902326013E0,7.839783025E-1,8.614270047E0
1.304942708E0,-4.874244230E0,-6.687412010E0,-5.933169266E-2,8.275461102E0
1.314995708E0,-7.308519044E0,-4.928547907E0,-8.015252119E-1,8.851411060E0
1.325048708E0,-9.376603206E0,-3.225712994E0,-1.027627101E0,9.969048574E0
1.335102708E0,-9.049129894E0,-1.350492808E0,-5.493781799E-1,9.165827788E0
1.345155708E0,-6.395787392E0,-8.595348537E-2,2.045408660E-1,6.399634468E0
1.355208708E0,-3.456192108E0,1.227863832E0,7.380501777E-1,3.741340875E0
1.365261708E0,-2.058715754E0,7.223819786E-1,1.128511451E0,2.456355913E0
1.375314708E0,-7.063313717E-1,2.414432287E-1,6.408945966E-1,9.838418182E-1
1.385367708E0,7.307215700E-1,1.049098077E0,-1.494045460E-1,1.287199482E0
1.395420708E0,1.526135272E0,2.431550596E0,-6.150826478E-1,2.935958759E0
1.405473708E0,1.289130957E0,4.652526584E0,-3.459913715E-1,4.840203742E0
1.415527708E0,1.710463775E0,5.836842107E0,-1.063047194E-1,6.083232102E0
1.425580708E0,2.367713034E0,6.296532660E0,-6.432404995E-2,6.727297090E0
1.435633708E0,2.779920103E0,6.654500957E0,1.159934096E-1,7.212752126E0
1.445686708E0,2.646382854E0,6.796932698E0,1.529467893E-1,7.295548576E0
1.455739708E0,2.093966570E0,6.482333200E0,3.853315115E-2,6.812255465E0
1.465792708E0,1.633022082E0,6.198797035E0,-2.074089253E-1,6.413646721E0
1.475845708E0,1.178065581E0,5.794995924E0,-2.556031385E-1,5.919049690E0
1.485898708E0,-9.656197178E-1,6.735056877E-1,-2.288620672E-1,1.199336982E0
1.495952708E0,-1.739925849E0,-7.601611313E0,-5.032730672E-1,7.814417464E0
1.506005708E0,-9.386086513E-1,-1.261625772E1,1.908042946E-1,1.265256303E1
1.516058708E0,4.144189608E-1,-1.701585129E1,7.340059510E-1,1.703671632E1
1.526111708E0,1.595482080E0,-1.938938348E1,-7.166183782E-1,1.946810973E1
1.536164708E0,1.628624976E0,-1.854465494E1,-2.504369481E0,1.878373000E1
1.546217708E0,1.732308681E0,-1.501564980E1,-3.172480527E0,1.544458691E1
1.556270708E0,1.955809728E0,-9.969669918E0,-2.837226909E0,1.054842957E1
1.566323708E0,1.677044599E0,-5.285197656E0,-2.193223933E0,5.962887226E0
1.576377708E0,1.347769905E0,-1.519985463E0,-1.679046832E0,2.635533682E0
1.586430708E0,1.434381934E0,1.492593597E0,-1.716715765E0,2.689312215E0
1.596483708E0,2.179985544E0,4.146494508E0,-1.557559086E0,4.936774654E0
1.606536708E0,2.894605637E0,6.162516816E0,-9.664487068E-1,6.876727303E0
1.616589708E0,2.602067976E0,6.335682108E0,-3.164573045E-1,6.856513017E0
1.626642708E0,1.826405583E0,5.346957702E0,2.863849282E-1,5.657537481E0
1.636695708E0,7.648478208E-1,3.660162286E0,7.877485871E-1,3.821299254E0
1.646748708E0,-2.426163264E-1,1.728858531E0,1.036921543E0,2.030522294E0
1.656802708E0,-8.816544320E-1,8.013492107E-2,1.195299518E0,1.487439774E0
1.666855708E0,-1.275157135E0,-1.158996495E0,1.300865296E0,2.159062091E0
1.676908708E0,-1.561009967E0,-1.859488837E0,1.284404507E0,2.746660843E0
1.686961708E0,-1.652719305E0,-2.036661226E0,1.169768382E0,2.871903222E0
1.697014708E0,-1.573663195E0,-1.716530846E0,9.442167158E-1,2.512854792E0
1.707067708E0,-1.505892796E0,-1.020588807E0,6.884231043E-1,1.945055526E0
1.717120708E0,-1.550209136E0,-2.489732730E-1,4.318028426E-1,1.628370275E0
1.727173708E0,-1.659538328E0,3.656269795E-1,1.982017533E-1,1.710857821E0
1.737227708E0,-1.725849262E0,8.345274818E-1,-2.666900441E-2,1.917212306E0
1.747280708E0,-1.773289038E0,1.122979401E0,-3.577431786E-1,2.129229186E0
1.757333708E0,-1.762317469E0,1.052100037E0,-6.765741603E-1,2.161117753E0
1.767386708E0,-1.503755347E0,7.770721561E-1,-7.794759464E-1,1.863519259E0
1.777439708E0,-1.109598779E0,5.172312480E-1,-6.650972454E-1,1.393230763E0
1.787492708E0,-8.484241207E-1,2.479494256E-1,-5.365650666E-1,1.034023441E0
1.797545708E0,-6.563552195E-1,-3.859162331E-5,-5.009813972E-1,8.257024500E-1
1.807598708E0,-3.790289439E-1,-2.059032673E-1,-5.424730933E-1,6.930628779E-1
1.817652708E0,-1.174492201E-1,-2.149459863E-1,-6.276483142E-1,6.737495846E-1
1.827705708E0,1.081438150E-1,-2.191361010E-2,-7.662530529E-1,7.741569816E-1
1.837758708E0,3.476476684E-1,1.196112281E-1,-8.536829603E-1,9.294839127E-1
1.847811708E0,6.286999360E-1,1.136821514E-1,-8.390697451E-1,1.054620917E0
1.857864708E0,7.931588696E-1,1.088003111E-1,-7.696442918E-1,1.110536283E0
1.867917708E0,8.293946497E-1,-6.607938409E-3,-6.265889449E-1,1.039496443E0
1.877970708E0,8.690396489E-1,-1.164578247E-1,-4.395328617E-1,9.808065420E-1
1.888023708E0,8.545664746E-1,-1.842282236E-1,-2.712733841E-1,9.153213352E-1
1.898077708E0,8.132249057E-1,-2.356135547E-1,-1.693811198E-1,8.634456892E-1
1.908130708E0,7.943923397E-1,-2.725217646E-1,-9.775842905E-2,8.455081384E-1
1.918183708E0,7.117513020E-1,-2.944318664E-1,-1.878125668E-3,7.702490294E-1
1.928236708E0,5.774606390E-1,-3.166208804E-1,8.523047715E-2,6.640585861E-1
1.938289708E0,4.075078078E-1,-2.844699651E-1,2.115521161E-1,5.401296810E-1
1.948342708E0,2.249352233E-1,-2.315626037E-1,3.391585346E-1,4.682366984E-1
1.958395708E0,4.715501681E-2,-2.003957748E-1,4.005110295E-1,4.503233804E-1
1.968448708E0,-9.651911169E-2,-1.783944565E-1,4.429968984E-1,4.872235350E-1
1.978501708E0,-1.961239453E-1,-1.408915848E-1,4.745449658E-1,5.324546601E-1
1.988555708E0,-2.353707491E-1,-1.189171636E-1,4.361005461E-1,5.096315999E-1
1.998608708E0,-2.086837645E-1,-1.423101193E-1,4.110265160E-1,4.824353640E-1
2.008661708E0,-1.184281902E-1,-1.886785394E-1,3.377911632E-1,4.046327933E-1
2.018714708E0,2.728880927E-2,-2.313684762E-1,2.701283531E-1,3.567147011E-1
2.028767708E0,2.820037557E-1,-2.437370914E-1,2.012987311E-1,4.236213724E-1
2.038820708E0,5.312873697E-1,-2.129438996E-1,1.291157310E-1,5.867556950E-1
2.048873708E0,7.656271085E-1,-1.770419955E-1,3.730041191E-2,7.867147248E-1
2.058926708E0,9.493640198E-1,-1.738476616E-1,-2.019394398E-2,9.653615110E-1
2.068980708E0,1.070411909E0,-1.955075026E-1,-7.995468065E-2,1.091053431E0
2.079033708E0,1.180532083E0,-2.211194766E-1,-1.153081159E-1,1.206584345E0
2.089086708E0,1.254912320E0,-2.318865395E-1,-1.392302446E-1,1.283729473E0
2.099139708E0,1.300005755E0,-2.075328863E-1,-1.380072995E-1,1.323680806E0
2.109192708E0,1.314045651E0,-1.731419027E-1,-1.632870054E-1,1.335423804E0
2.119245708E0,1.263615170E0,-1.297292501E-1,-1.623643148E-1,1.280591717E0
2.129298708E0,1.171874110E0,-6.136828244E-2,-1.916471708E-1,1.189026339E0
2.139351708E0,1.011194378E0,-1.108924448E-2,-2.416899812E-1,1.039736067E0
2.149405708E0,7.877844013E-1,-1.101264596E-2,-2.836401721E-1,8.373632955E-1
2.159458708E0,5.734288377E-1,-6.040173769E-3,-2.993810959E-1,6.469050596E-1
2.169511708E0,3.647314784E-1,-1.790183544E-2,-3.043709636E-1,4.753853285E-1
2.179564708E0,1.872651212E-1,-6.578819275E-2,-3.010099840E-1,3.605597349E-1
2.189617708E0,1.430579782E-2,-1.551546979E-1,-2.746647692E-1,3.157821584E-1
2.199670708E0,-1.434675756E-1,-2.589720118E-1,-2.491368489E-1,3.869349010E-1
2.209723708E0,-2.348776826E-1,-3.071939993E-1,-2.239154689E-1,4.468487621E-1
2.219776708E0,-2.305896270E-1,-2.333243698E-1,-1.955623202E-1,3.819115849E-1
2.229830708E0,-1.864289694E-1,-3.119606495E-2,-1.725933608E-1,2.559637147E-1
2.239883708E0,-1.058325568E-1,1.283235794E-1,-1.423409633E-1,2.189256060E-1
2.249936708E0,-1.877584800E-2,1.370271599E-1,-5.266601756E-2,1.479955554E-1
2.259989708E0,1.225246033E-1,1.223968416E-1,3.807940722E-2,1.773226058E-1
2.270042708E0,2.880410059E-1,2.178777802E-1,1.199028580E-1,3.805457181E-1
2.280095708E0,4.047688258E-1,2.632077348E-1,1.635665023E-1,5.097745724E-1
2.290148708E0,3.905801184E-1,1.883598661E-1,2.092753565E-1,4.814856622E-1
2.300201708E0,3.245228076E-1,1.440929353E-2,2.405355947E-1,4.042029845E-1
2.310254708E0,1.508492468E-1,-8.620900869E-2,2.797272885E-1,3.292944645E-1
2.320308708E0,-2.078626692E-2,-2.109266102E-2,3.183142340E-1,3.196887874E-1
2.330361708E0,-1.845517208E-1,1.879207402E-1,3.180392687E-1,4.129437234E-1
2.340414708E0,-2.853632735E-1,5.130002028E-1,2.616441894E-1,6.426967308E-1
2.350467708E0,-3.942714657E-1,8.135254526E-1,1.514230049E-1,9.166256472E-1
2.360520708E0,-5.397304568E-1,9.091543257E-1,-2.378530383E-2,1.057561485E0
2.370573708E0,-6.930714945E-1,7.418099374E-1,-1.908590392E-1,1.032984633E0
2.380626708E0,-9.262809666E-1,5.066659141E-1,-3.414235997E-1,1.109629151E0
2.390679708E0,-1.099096302E0,3.434385502E-1,-4.792459810E-1,1.247252753E0
2.400733708E0,-1.209035359E0,2.664248729E-1,-6.049796824E-1,1.377951061E0
2.410786708E0,-1.232247489E0,2.714657575E-1,-7.018027762E-1,1.443833324E0
2.420839708E0,-1.173241482E0,3.276025361E-1,-6.969634744E-1,1.403416218E0
2.430892708E0,-1.037182475E0,4.120567954E-1,-6.314511971E-1,1.282290491E0
2.440945708E0,-8.174154590E-1,4.408894157E-1,-4.856100174E-1,1.048030819E0
2.450998708E0,-5.853043865E-1,3.081131816E-1,-3.526245991E-1,7.495725885E-1
2.461051708E0,-3.567737103E-1,1.342836463E-1,-1.909208735E-1,4.263453506E-1
2.471104708E0,-1.493947519E-1,-2.296318531E-2,-2.358649850E-2,1.529785040E-1
2.481157708E0,1.743858978E-2,-1.115409011E-1,1.401238453E-1,1.799449056E-1
2.491211708E0,1.625568344E-1,-1.737932825E-1,2.865544244E-1,3.724812312E-1
2.501264708E0,2.554709914E-1,-1.698043120E-1,4.565342259E-1,5.500203917E-1
2.511317708E0,2.727379654E-1,-1.496390194E-1,5.868885434E-1,6.642409173E-1
2.521370708E0,1.899522091E-1,-6.420476675E-2,7.047708229E-1,7.327387028E-1
2.531423708E0,7.176799402E-2,2.345025837E-2,7.897636107E-1,7.933644310E-1
2.541476708E0,-1.007457715E-1,-1.870524287E-3,8.697499394E-1,8.755673398E-1
2.551529708E0,-2.456419681E-1,-3.730582058E-2,8.871360505E-1,9.212719863E-1
2.561582708E0,-2.922315592E-1,-1.357273239E-1,8.637563972E-1,9.218982072E-1
2.571636708E0,-2.743000491E-1,-2.127065027E-1,7.694220977E-1,8.440941521E-1
2.581689708E0,-1.766414613E-1,-2.094332314E-1,6.314011303E-1,6.882818257E-1
2.591742708E0,-2.657150209E-2,-1.284580654E-1,4.541603295E-1,4.727252100E-1
2.601796208E0,1.071946657E-1,-5.733662724E-2,2.683977965E-1,2.946448071E-1
2.611849208E0,1.643976840E-1,1.690663934E-2,8.243528880E-2,1.846835396E-1
2.621902208E0,1.886361471E-1,1.137874013E-1,-6.825220942E-2,2.306285602E-1
2.631955208E0,1.789133969E-1,2.492673880E-1,-1.831709739E-1,3.573455470E-1
2.642008208E0,1.317906860E-1,2.986471242E-1,-2.519832735E-1,4.123765995E-1
2.652061208E0,5.594557464E-2,2.632995361E-1,-3.210109699E-1,4.189326865E-1
2.662115208E0,4.336441308E-3,1.516305810E-1,-3.657409271E-1,3.959508348E-1
2.672168208E0,-1.670432568E-2,3.276721179E-2,-4.071519316E-1,4.088097602E-1
2.682221208E0,-1.155629084E-2,-2.963836670E-2,-4.077556566E-1,4.089946896E-1
2.692274208E0,9.475705326E-3,-1.298666596E-2,-4.093202984E-1,4.096358739E-1
2.702327208E0,3.076015502E-2,3.478800952E-2,-3.622477274E-1,3.652120052E-1
2.712380208E0,1.146960586E-2,5.518719077E-2,-2.898370513E-1,2.952671573E-1
2.722433208E0,3.797766566E-4,3.865652740E-2,-1.707141387E-1,1.750365348E-1
2.732486208E0,-1.847807854E-2,-1.160789251E-2,-7.044601165E-2,7.374837701E-2
2.742540208E0,-3.387262791E-2,-1.157584977E-1,4.575446248E-2,1.289994401E-1
2.752593208E0,-4.580518708E-2,-2.140244651E-1,1.378505210E-1,2.586645568E-1
2.762646208E0,-5.897633269E-2,-2.197196531E-1,2.446955232E-1,3.341120064E-1
2.772699208E0,-5.718343019E-2,-1.461762983E-1,3.534301993E-1,3.867174170E-1
2.782752208E0,-7.863949567E-2,-4.648711860E-2,4.505911160E-1,4.597581715E-1
2.792805208E0,-9.430740237E-2,3.300460875E-2,5.139561494E-1,5.235781832E-1
2.802858208E0,-1.470181511E-1,6.891352952E-2,5.477917206E-1,5.713485631E-1
2.812911208E0,-1.823650083E-1,1.116198385E-1,5.403154707E-1,5.810824317E-1
2.822964208E0,-1.956916898E-1,9.975466847E-2,5.013531339E-1,5.473583801E-1
2.833018208E0,-1.744850081E-1,6.271255732E-2,4.323735309E-1,4.704516480E-1
2.843071208E0,-1.371394265E-1,-9.151477218E-3,3.326960456E-1,3.599689301E-1
2.853124208E0,-7.293948367E-2,-3.962716520E-2,2.235449747E-1,2.384592968E-1
2.863177208E0,-1.562668383E-2,-4.668826282E-2,1.159807650E-1,1.259981150E-1
2.873230208E0,5.385139436E-3,-3.230469704E-2,3.455243982E-2,4.760739727E-2
2.883283208E0,1.541896150E-2,4.087379158E-2,-6.907827482E-3,4.422815045E-2
2.893336208E0,-5.838006288E-3,7.895670712E-2,-7.646060385E-2,1.100657433E-1
2.903389208E0,-2.075556904E-2,9.954416871E-2,-9.697029747E-2,1.405100486E-1
2.913442208E0,-3.193953842E-2,8.060152888E-2,-1.024888265E-1,1.342412013E-1
2.923496208E0,-7.443987921E-2,-6.181676388E-3,-9.498684883E-2,1.208387777E-1
2.933549208E0,-9.277777076E-2,-9.843962967E-2,-6.945096172E-2,1.520575928E-1
2.943602208E0,-7.237639681E-2,-1.563229716E-1,-3.179365039E-2,1.751743431E-1
2.953655208E0,-2.950198039E-2,-1.628075337E-1,2.059615932E-2,1.667359040E-1
2.963708208E0,4.624899074E-2,-9.526400685E-2,7.478713073E-2,1.296430294E-1
2.973761208E0,1.900657913E-1,-3.994583845E-2,1.375838879E-1,2.380126074E-1
2.983814208E0,3.515470304E-1,4.176256835E-2,1.753101233E-1,3.950481819E-1
2.993867208E0,4.974461706E-1,7.250255048E-2,1.977785611E-1,5.402089149E-1
3.003921208E0,5.432547198E-1,5.341723859E-2,1.600663590E-1,5.688587973E-1
3.013974208E0,5.020385738E-1,-1.761999965E-2,1.182856643E-1,5.160859350E-1
3.024027208E0,4.278629887E-1,-7.982209504E-2,8.237082325E-2,4.429709432E-1
3.034080208E0,3.044218343E-1,-5.489482999E-2,6.561621152E-2,3.162144570E-1
3.044133208E0,1.481618665E-1,-9.696437716E-3,3.210698806E-2,1.519105601E-1
3.054186208E0,-1.873901054E-2,1.202479899E-2,4.312833175E-3,2.267921597E-2
3.064239208E0,-2.018816985E-1,1.987234712E-2,-3.580491342E-2,2.059930149E-1
3.074292208E0,-3.412019902E-1,-2.608676791E-2,-7.235805117E-2,3.497642137E-1
3.084345208E0,-4.348068497E-1,-7.406200290E-2,-6.216174960E-2,4.454281759E-1
3.094399208E0,-4.753401871E-1,-8.612656295E-2,-7.587120451E-2,4.890015521E-1
3.104452208E0,-4.385705562E-1,-6.613902569E-2,-7.723711409E-2,4.502044816E-1
3.114505208E0,-2.995046183E-1,-2.614757895E-2,-5.428445376E-2,3.055053424E-1
3.124558208E0,-1.189490309E-1,6.387381434E-2,-2.787016869E-2,1.378603729E-1
3.134611208E0,9.282264814E-2,1.666105628E-1,6.331292018E-3,1.908276943E-1
3.144664208E0,3.035630246E-1,2.012658405E-1,4.607722878E-2,3.671260811E-1
3.154717208E0,3.998042473E-1,1.499331343E-1,7.422572494E-2,4.333968611E-1
3.164770208E0,4.013153140E-1,4.670931280E-2,9.058623433E-2,4.140550773E-1
3.174823208E0,2.988314576E-1,-1.851111531E-2,8.257905722E-2,3.105836476E-1
3.184877208E0,1.611099409E-1,-2.771053970E-2,8.054181419E-2,1.822395975E-1
3.194930208E0,6.524966419E-2,3.250934958E-2,9.687666893E-2,1.212413521E-1
3.204983208E0,2.324750617E-2,1.203175718E-1,9.925648570E-2,1.576978585E-1
3.215036208E0,-2.988862753E-2,2.000525433E-1,8.756899796E-2,2.204147897E-1
3.225089208E0,-3.116332054E-2,2.161569446E-1,6.946959972E-2,2.291746115E-1
3.235142208E0,-4.705298290E-2,2.006179690E-1,3.895071544E-2,2.097110177E-1
3.245195208E0,-1.213545755E-2,1.555078697E-1,-2.040670954E-2,1.573098874E-1
3.255248208E0,3.540430605E-2,9.895184577E-2,-9.022370696E-2,1.385108298E-1
3.265301208E0,8.328715503E-2,6.240733266E-2,-1.466293844E-1,1.798099044E-1
3.275355208E0,1.362525500E-1,5.802776814E-2,-1.910180104E-1,2.417020057E-1
3.285408208E0,1.375499010E-1,7.041275561E-2,-1.987573119E-1,2.517586155E-1
3.295461208E0,1.031368442E-1,8.009223640E-2,-1.813888156E-1,2.235036407E-1
3.305514208E0,4.185524672E-2,9.752746403E-2,-1.160824335E-1,1.572850892E-1
3.315567208E0,-4.033190086E-2,5.356341898E-2,-2.595462084E-2,7.189815313E-2
3.325620208E0,-1.230243941E-1,-2.560495734E-2,4.373359166E-2,1.330535321E-1
3.335673208E0,-2.117816193E-1,-7.568752885E-2,1.170062204E-1,2.535162952E-1
3.345726208E0,-2.588686623E-1,-1.312156123E-1,1.900987550E-1,3.469410005E-1
3.355779208E0,-2.439797509E-1,-1.477801895E-1,2.538124287E-1,3.818191355E-1
3.365833208E0,-1.850348470E-1,-1.716134405E-1,3.096439096E-1,3.994601586E-1
3.375886208E0,-6.564186618E-2,-1.357302475E-1,3.284791068E-1,3.614278327E-1
3.385939208E0,5.626117811E-2,-7.791239440E-2,3.317897272E-1,3.454273939E-1
3.395992208E0,1.403360993E-1,-3.610304832E-2,2.981015059E-1,3.314546102E-1
3.406045208E0,1.551602527E-1,2.686210871E-3,2.419039162E-1,2.874011560E-1
3.416098208E0,1.324476206E-1,1.026478708E-2,1.843276262E-1,2.272100611E-1
3.426151208E0,6.413211510E-2,-1.594535708E-3,1.407973715E-1,1.547235294E-1
3.436204208E0,1.745496199E-2,1.318020880E-2,1.454530708E-1,1.470883728E-1
3.446257208E0,-1.845644385E-2,4.082818329E-2,1.666981979E-1,1.726148026E-1
3.456311208E0,-3.981135249E-2,5.726178288E-2,2.215791408E-1,2.322954395E-1
3.466364208E0,-6.501606792E-2,5.708285809E-2,2.198739465E-1,2.362839270E-1
3.476417208E0,-8.813858986E-2,3.296016991E-2,2.298189640E-1,2.483375526E-1
3.486470208E0,-1.143061955E-1,-2.238898873E-3,1.997175709E-1,2.301261114E-1
3.496523208E0,-1.272897917E-1,-4.373951197E-2,1.656949619E-1,2.134728469E-1
3.506576208E0,-1.429522897E-1,-4.756359100E-2,1.090623394E-1,1.859899089E-1
3.516629208E0,-1.461590490E-1,-3.771220207E-2,3.103351235E-2,1.541030716E-1
3.526682208E0,-1.214829218E-1,-2.035064936E-2,-1.665170074E-2,1.242961317E-1
3.536735208E0,-9.278391033E-2,-1.253526092E-2,-4.983706154E-2,1.060646948E-1
3.546789208E0,-1.514034167E-2,-2.636041760E-2,-6.383061804E-2,7.069971260E-2
3.556842208E0,5.128519759E-2,-2.333974600E-2,-4.726889133E-2,7.354769420E-2
3.566895208E0,1.097272409E-1,4.970133305E-4,-3.520842433E-2,1.152386549E-1
3.576948208E0,1.603802083E-1,3.830277085E-2,-1.512323856E-2,1.655826858E-1
3.587001208E0,1.762941366E-1,3.633810639E-2,1.184295058E-2,1.803894012E-1
3.597054208E0,1.931072205E-1,4.850382328E-2,1.312699914E-2,1.995378100E-1
3.607106708E0,2.093607259E-1,3.962482631E-2,3.722805262E-2,2.163052665E-1
3.617159708E0,1.827086784E-1,4.351614833E-2,6.497352943E-3,1.879317214E-1
3.627212708E0,2.032204185E-1,3.598259568E-2,-3.478157759E-2,2.092917673E-1
3.637266708E0,1.886836557E-1,2.269362867E-2,-5.342948120E-2,1.974113274E-1
3.647319708E0,1.545929267E-1,2.685099900E-2,-8.607335329E-2,1.789652795E-1
3.657372708E0,8.926023200E-2,7.534195840E-2,-8.562428713E-2,1.448285823E-1
3.667425708E0,-5.354880095E-3,1.364114481E-1,-7.558586039E-2,1.560448019E-1
3.677478708E0,-7.509198993E-2,1.670473498E-1,-6.039472103E-2,1.928500619E-1
3.687531708E0,-1.372752281E-1,1.515206534E-1,-2.486700218E-2,2.059644737E-1
3.697584708E0,-1.830185808E-1,1.391771811E-1,2.182531714E-2,2.309598085E-1
3.707637708E0,-1.960846227E-1,1.288059747E-1,2.206848823E-2,2.356420518E-1
3.717690708E0,-1.848434968E-1,8.058632612E-2,3.727241836E-2,2.050622039E-1
3.727744708E0,-1.143895184E-1,4.423360169E-2,2.851570129E-2,1.259155219E-1
3.737797708E0,-3.593435615E-2,2.201125860E-2,2.672886528E-2,4.990196085E-2
3.747850708E0,5.013373464E-2,-9.801102877E-3,4.923947610E-2,7.095053892E-2
3.757903708E0,1.244582775E-1,-5.717115104E-2,5.456855536E-2,1.474317828E-1
3.767956708E0,1.632150847E-1,-5.782896280E-2,5.984267078E-2,1.832061627E-1
3.778009708E0,1.908031252E-1,-4.858042181E-2,7.180022679E-2,2.095737640E-1
3.788062708E0,2.278262329E-1,-1.833686829E-3,9.096856914E-2,2.453231244E-1
3.798115708E0,2.351085015E-1,1.369944155E-2,1.282224226E-1,2.681504649E-1
3.808168708E0,2.336835350E-1,5.628939092E-2,1.776886976E-1,2.989143076E-1
3.818222708E0,2.235760380E-1,4.577258885E-2,2.315240121E-1,3.250918991E-1
3.828275708E0,2.059953609E-1,2.649373412E-2,2.595707667E-1,3.324349404E-1
3.838328708E0,1.772064485E-1,2.603297353E-2,2.837805053E-1,3.355759471E-1
3.848381708E0,1.011025979E-1,8.281528473E-2,2.829795098E-1,3.117009940E-1
3.858434708E0,-2.170384124E-2,1.289813912E-1,2.802218898E-1,3.092435344E-1
3.868487708E0,-2.070744646E-1,9.319467723E-2,2.463021918E-1,3.350072409E-1
3.878540708E0,-4.383031923E-1,2.947172105E-2,2.035533444E-1,4.841613726E-1
3.888593708E0,-6.305956033E-1,-4.063230157E-3,1.653511456E-1,6.519266263E-1
3.898646708E0,-7.713553333E-1,1.303052008E-2,1.550108564E-1,7.868844962E-1
3.908700708E0,-8.670242599E-1,7.308434844E-2,1.731360555E-1,8.871575299E-1
3.918753708E0,-8.948618303E-1,1.114999706E-1,2.032807180E-1,9.244095354E-1
3.928806708E0,-8.464427917E-1,1.006627411E-1,2.419040624E-1,8.860676963E-1
3.938859708E0,-7.031408384E-1,3.839924991E-2,2.797039727E-1,7.577043311E-1
3.948912708E0,-5.293471174E-1,-2.807072818E-2,3.159706700E-1,6.171173314E-1
3.958965708E0,-3.696106875E-1,-1.363874745E-1,3.080078586E-1,5.000824377E-1
3.969018708E0,-2.366257077E-1,-1.993953162E-1,2.800032040E-1,4.173152429E-1
3.979071708E0,-5.323948324E-2,-1.867887193E-1,2.552298669E-1,3.207284727E-1
3.989124708E0,1.703576048E-1,-1.264372677E-1,2.205816058E-1,3.060463053E-1
3.999177708E0,3.846275067E-1,-2.988336504E-2,2.047133589E-1,4.367366412E-1
4.009231708E0,5.695060869E-1,1.035015643E-2,1.877540215E-1,5.997465142E-1
4.019284708E0,7.116880059E-1,1.504079282E-2,1.438158504E-1,7.262293316E-1
4.029337708E0,7.899214125E-1,-3.220880270E-2,1.278295628E-1,8.008455794E-1
4.039390708E0,7.806440739E-1,-1.137137264E-1,8.259309053E-2,7.931945539E-1
4.049443708E0,7.071827263E-1,-1.140937954E-1,2.243225813E-2,7.166784556E-1
4.059496708E0,5.783178408E-1,-6.544086814E-2,-3.125804543E-2,5.828474051E-1
4.069549708E0,3.806347355E-1,-6.108644664E-2,-8.223765291E-2,3.941793848E-1
4.079602708E0,2.224115650E-1,-5.520063937E-2,-1.034466735E-1,2.514263891E-1
4.089655708E0,1.088916738E-1,-6.867087007E-2,-6.293716349E-2,1.432974933E-1
4.099709708E0,3.298341259E-2,-8.987813652E-2,7.893741131E-4,9.574240461E-2
4.109762708E0,-3.431730866E-3,-1.186902916E-1,8.403384447E-2,1.454676910E-1
4.119815708E0,1.230224937E-2,-2.043660343E-1,1.180998690E-1,2.363565112E-1
4.129868708E0,3.178575665E-2,-3.070817327E-1,1.473275419E-1,3.420744503E-1
4.139921708E0,3.344446555E-2,-4.021726620E-1,1.535525608E-1,4.317867197E-1
4.149974708E0,6.566262379E-2,-5.015139323E-1,1.528297719E-1,5.283793558E-1
4.160027708E0,1.198860472E-1,-6.387568545E-1,1.351700111E-1,6.638176824E-1
4.170080708E0,2.148693877E-1,-7.432582927E-1,1.622332641E-1,7.905196869E-1
4.180133708E0,3.602052949E-1,-8.367897695E-1,1.996846803E-1,9.326515665E-1
4.190187708E0,4.938667975E-1,-9.391575587E-1,2.439948805E-1,1.088785946E0
4.200240708E0,5.995148747E-1,-1.121830423E0,2.848214559E-1,1.303474144E0
4.210293708E0,6.522976904E-1,-1.322077678E0,3.255742101E-1,1.509761647E0
4.220346708E0,7.021188913E-1,-1.464787163E0,3.790247778E-1,1.668002443E0
4.230399708E0,7.249334112E-1,-1.518534769E0,4.789314008E-1,1.749528960E0
4.240452708E0,7.068880266E-1,-1.450110651E0,6.208233710E-1,1.728563924E0
4.250505708E0,6.456153461E-1,-1.253850612E0,8.508447218E-1,1.647087512E0
4.260558708E0,5.368964575E-1,-9.057676184E-1,1.159594080E0,1.566311341E0
4.270611708E0,3.790689974E-1,-4.924022162E-1,1.558116910E0,1.677462832E0
4.280664708E0,1.870325482E-1,-1.461219192E-1,1.902742445E0,1.917488358E0
4.290718708E0,-5.130215451E-2,1.043143272E-1,2.180130848E0,2.183227863E0
4.300771708E0,-2.861658038E-1,2.868152833E-1,2.319010406E0,2.354137450E0
4.310824708E0,-4.616407456E-1,4.504273939E-1,2.261491345E0,2.351667519E0
4.320877708E0,-6.361316009E-1,7.028949630E-1,2.176071711E0,2.373607557E0
4.330930708E0,-8.086284095E-1,1.296179191E0,2.226108674E0,2.699911152E0
4.340983708E0,-1.068957414E0,2.033989633E0,2.402827903E0,3.324660240E0
4.351036708E0,-1.311778100E0,2.611114495E0,2.122660904E0,3.611699047E0
4.361089708E0,-1.618632669E0,2.845558607E0,9.852166611E-1,3.418746462E0
4.371142708E0,-1.829360181E0,2.847964152E0,-5.675301665E-1,3.432134754E0
4.381196708E0,-1.758075460E0,2.841802940E0,-2.052910053E0,3.921876204E0
4.391249708E0,-1.996196447E0,2.667422597E0,-3.003476114E0,4.485622848E0
4.401302708E0,-2.562194643E0,2.399888508E0,-3.057120225E0,4.655135906E0
4.411355708E0,-3.843169611E0,2.112138839E0,-9.491223836E-1,4.486860421E0
4.421408708E0,-5.803414160E0,1.592068183E0,4.047699367E0,7.252459389E0
4.431461708E0,-6.703438643E0,1.267284590E0,7.163126273E0,9.892041138E0
4.441514708E0,-4.668638002E0,1.534416391E0,4.658177918E0,6.771206389E0
4.451567708E0,-1.860818202E0,1.504202074E0,1.510101476E0,2.829430106E0
4.461620708E0,2.871263552E-1,1.498664761E0,-3.383672601E-1,1.562987528E0
4.471673708E0,2.175008687E0,1.882771280E0,-1.798926593E-1,2.882334445E0
4.481727708E0,3.625396204E0,2.107301438E0,1.649984708E0,4.506291882E0
4.491780708E0,4.630429956E0,1.820981998E0,2.621822501E0,5.624127509E0
4.501833708E0,5.701042278E0,1.532903132E0,1.464945914E0,6.082576888E0
4.511886708E0,6.806123936E0,1.041857470E0,2.749021661E-1,6.890889726E0
4.521939708E0,7.293180628E0,4.204820484E-1,-4.456385243E-1,7.318871670E0
4.531992708E0,7.132390383E0,-1.472036541E-1,-1.258184568E0,7.244010623E0
4.542045708E0,6.220721755E0,-7.230263418E-1,-2.781340976E0,6.852445102E0
4.552098708E0,4.388525674E0,-1.121446261E0,-4.930120808E0,6.694989954E0
4.562151708E0,2.482998492E0,-1.501293669E0,-6.370649042E0,7.000309522E0
4.572205708E0,1.586519176E0,-2.450721862E0,-6.342545570E0,6.982189130E0
4.582258708E0,7.138587847E-1,-5.167407836E0,-4.376690032E0,6.809340184E0
4.592311708E0,2.584080479E-1,-8.867301368E0,-2.033067673E0,9.101053369E0
4.602365125E0,9.148328492E-1,-1.047042196E1,-1.711405323E0,1.064873529E1
4.612418125E0,4.271738943E-1,-1.076951055E1,-2.470591870E0,1.105751596E1
4.622471125E0,-9.018979311E-1,-1.095061168E1,-3.898020002E0,1.165863954E1
4.632524125E0,-2.684970092E0,-1.158070413E1,-5.272416227E0,1.300462016E1
4.642577125E0,-4.579255124E0,-1.216899367E1,-6.007836912E0,1.432299161E1
4.652630125E0,-6.176524991E0,-1.184463926E1,-6.159038308E0,1.470981621E1
4.662683125E0,-7.130594704E0,-1.108527773E1,-5.462703921E0,1.426779231E1
4.672737125E0,-7.805945188E0,-1.074492534E1,-3.610341670E0,1.376302176E1
4.682790125E0,-9.003477173E0,-1.072510679E1,7.551317219E-1,1.402357803E1
4.692843125E0,-1.168751639E1,-1.023867809E1,1.120523687E1,1.915687609E1
4.702896125E0,-1.119735950E1,-8.036033124E0,1.598269039E1,2.110462225E1
4.712949125E0,-7.196339627E0,-4.500698367E0,8.851830220E0,1.226370613E1
4.723002125E0,-4.332585654E0,-1.824965122E0,4.181164404E0,6.291576266E0
4.733055125E0,-2.090296858E0,2.632065654E-2,1.999823767E0,2.892979231E0
4.743108125E0,-5.011702622E-1,1.755078616E0,1.257960620E0,2.216740287E0
4.753161125E0,8.768719943E-1,3.612322122E0,1.637656000E0,4.061981386E0
4.763214125E0,2.067997478E0,5.771219391E0,2.323163098E0,6.555964735E0
4.773268125E0,3.191478716E0,8.260062175E0,2.893947240E0,9.316066453E0
4.783321125E0,4.237436838E0,1.072272697E1,3.653608142E0,1.209469293E1
4.793374125E0,4.365748723E0,1.277038798E1,4.069984276E0,1.409635922E1
4.803427125E0,3.592739212E0,1.381145549E1,2.317583100E0,1.445805206E1
4.813480125E0,3.024758517E0,1.395459650E1,-4.767141366E-1,1.428660855E1
4.823533125E0,2.551831622E0,1.385019914E1,-2.654196196E0,1.433124623E1
4.833586125E0,1.956222249E0,1.349810555E1,-3.873692077E0,1.417854538E1
4.843639125E0,1.303534111E0,1.285660752E1,-4.207710178E0,1.359030474E1
4.853692125E0,5.783402064E-1,1.182164567E1,-4.084202365E0,1.252064266E1
4.863746125E0,2.664356902E-2,1.045097412E1,-3.456550543E0,1.100778414E1
4.873799125E0,-2.909792317E-1,9.514119194E0,-2.577964291E0,9.861492424E0
4.883852125E0,-5.762935348E-1,9.137383089E0,-1.507427983E0,9.278805046E0
4.893905125E0,-8.635435586E-1,9.016757954E0,2.632294061E-2,9.058053012E0
4.903958125E0,-1.174416480E0,8.904022467E0,1.546609590E0,9.113334811E0
4.914011125E0,-1.303174215E0,8.617881952E0,2.092330812E0,8.963481500E0
4.924064125E0,-1.058701836E0,8.127497025E0,1.866264006E0,8.405950203E0
4.934117125E0,-1.567360774E-1,7.635659065E0,1.347601359E0,7.755248867E0
4.944170125E0,1.788449260E0,6.882602009E0,5.001065441E-1,7.128735352E0
4.954223125E0,3.682619687E0,6.378824034E0,6.958844438E-3,7.365536793E0
4.964277125E0,4.716933372E0,6.238499045E0,-1.202528358E0,7.912926463E0
4.974330125E0,5.216456620E0,5.998073816E0,-3.078592955E0,8.524438031E0
4.984383125E0,5.754963546E0,5.455758013E0,-3.402466137E0,8.629117958E0
4.994436125E0,6.372525998E0,4.160343053E0,-2.454574592E0,7.996404089E0
5.004489125E0,6.326263413E0,1.614694569E0,-1.207194582E0,6.639741417E0
5.014542125E0,4.967806113E0,-1.712192797E0,-7.823967768E-1,5.312517903E0
5.024595125E0,3.753423329E0,-5.565882134E0,-1.672461551E0,6.918407205E0
5.034648125E0,3.319788846E0,-1.276149904E1,-1.672781833E0,1.329191690E1
5.044701125E0,2.755340455E0,-2.319246867E1,-1.766927998E0,2.342230857E1
5.054754125E0,1.875175747E0,-3.228289160E1,-1.983262698E0,3.239806638E1
5.064808125E0,2.933132941E-1,-3.440621207E1,-6.860724505E-1,3.441430164E1
5.074861125E0,-3.703229953E0,-3.135208503E1,7.614419639E-1,3.157921693E1
5.084914125E0,-8.222658121E0,-2.652052606E1,-6.035771181E-1,2.777255326E1
5.094967125E0,-9.248715245E0,-2.045129631E1,-2.932005597E0,2.263605335E1
5.105020125E0,-8.605524446E0,-1.608200651E1,-4.455403495E0,1.877595816E1
5.115073125E0,-8.964258728E0,-1.377937767E1,-4.997685969E0,1.718156129E1
5.125126125E0,-9.173214827E0,-1.178995376E1,-2.937966249E0,1.522440559E1
5.135179125E0,-8.016873552E0,-9.511028355E0,1.442962430E0,1.252246232E1
5.145232125E0,-6.372085118E0,-8.580777276E0,5.027835968E0,1.181153427E1
5.155285125E0,-4.327448291E0,-7.384251596E0,7.437071249E0,1.133860702E1
5.165339125E0,-2.294024084E0,-5.393681633E0,8.189941195E0,1.007122062E1
5.175392125E0,-8.064193314E-1,-3.691911498E0,7.005005282E0,7.959310375E0
5.185445125E0,3.628460437E-1,-1.685162873E0,5.598716004E0,5.858075798E0
5.195498125E0,1.592823059E0,8.619468302E-1,4.903740510E0,5.227495444E0
5.205551125E0,2.699000486E0,3.729579846E0,4.752067244E0,6.616382134E0
5.215604125E0,3.350488483E0,6.259540835E0,4.332409068E0,8.317294805E0
5.225657125E0,3.089194834E0,8.072091148E0,2.631797851E0,9.034829282E0
5.235710125E0,2.452081632E0,9.600079696E0,3.795503694E-1,9.915558127E0
5.245763125E0,1.557568442E0,1.111464713E1,-1.513509087E0,1.132484481E1
5.255816125E0,5.095623323E-1,1.217099108E1,-3.295087869E0,1.261944062E1
5.265870125E0,-1.412693149E-1,1.263537460E1,-4.972247073E0,1.357924480E1
5.275923125E0,-3.184715241E-1,1.267507369E1,-6.158347167E0,1.409553677E1
5.285976125E0,-1.584491654E-1,1.244441623E1,-6.054856128E0,1.384015478E1
5.296029125E0,-3.650402114E-2,1.206963895E1,-5.021361346E0,1.307255088E1
5.306082125E0,6.187830582E-2,1.168628496E1,-3.825988737E0,1.229679938E1
5.316135125E0,2.204938245E-1,1.140583379E1,-2.761960380E0,1.173755030E1
5.326188125E0,5.333480747E-1,1.131930202E1,-1.728851514E0,1.146298329E1
5.336241125E0,8.938366672E-1,1.130822973E1,-5.797555250E-1,1.135830621E1
5.346294125E0,1.009670740E0,1.137747129E1,6.435468936E-1,1.144029897E1
5.356347125E0,7.581733704E-1,1.149420276E1,1.600573543E0,1.162984779E1
5.366401125E0,1.212807544E-1,1.142544301E1,1.785418063E0,1.156473842E1
5.376454125E0,-5.763945454E-1,1.118553877E1,1.359372389E0,1.128257070E1
5.386507125E0,-1.137724617E0,1.089181208E1,9.979793787E-1,1.099645172E1
5.396560125E0,-1.534915305E0,1.059981499E1,9.153693312E-1,1.074941598E1
5.406613125E0,-2.125012216E0,1.043008669E1,1.499154757E0,1.074941163E1
5.416666125E0,-2.894655046E0,1.027962497E1,3.128876086E0,1.112832346E1
5.426719125E0,-3.266328923E0,1.003841095E1,4.828565197E0,1.160834359E1
5.436772125E0,-2.371177948E0,8.898914924E0,6.523303471E0,1.128568385E1
5.446825125E0,1.253052906E0,6.502979718E0,7.997153233E0,1.038332060E1
5.456878125E0,4.175314557E0,5.033238210E0,1.001153715E1,1.195816101E1
5.466932125E0,5.549656695E0,4.985822554E0,5.531226271E0,9.287172876E0
5.476985125E0,5.583557682E0,5.198199273E0,-1.768987972E0,7.831137243E0
5.487038125E0,5.300934852E0,3.688342942E0,-1.314640020E0,6.590300627E0
5.497091125E0,4.470315650E0,2.696479751E0,-1.751943339E0,5.506725934E0
5.507144125E0,3.726708863E0,2.775527675E0,-4.385857297E0,6.389652342E0
5.517197125E0,2.879437374E0,-3.801857278E0,-4.228879437E0,6.374064610E0
5.527250125E0,2.451282317E0,-1.575753516E1,-4.011558312E0,1.644388335E1
5.537303125E0,1.680244195E0,-2.651750890E1,-5.696235282E0,2.717441067E1
5.547356125E0,-8.658706042E-1,-3.666060606E1,-8.276378245E0,3.759319361E1
5.557409125E0,-3.334590196E0,-4.430437639E1,-9.952479104E0,4.553074894E1
5.567463125E0,-5.319743591E0,-3.984010676E1,-8.180361117E0,4.101770455E1
5.577516125E0,-5.433469012E0,-3.065502442E1,-7.660630769E0,3.206147800E1
5.587569125E0,-1.298403764E0,-2.066318303E1,-4.350588647E0,2.115610094E1
5.597622125E0,3.021623240E0,-1.529988178E1,2.029271514E0,1.572687294E1
5.607674333E0,6.593518590E0,-1.291646195E1,8.895993070E0,1.701317635E1
5.617727333E0,6.284642347E0,-1.156143522E1,7.403585415E0,1.509889369E1
5.627780333E0,2.666372145E0,-1.194210065E1,6.498414212E-1,1.225339146E1
5.637833333E0,4.328712751E-1,-1.268273237E1,-2.740901048E0,1.298274303E1
5.647886333E0,-1.101943165E0,-1.195056976E1,-3.749030024E0,1.257321050E1
5.657939333E0,-3.113694960E0,-1.062540358E1,-3.946110427E0,1.175440705E1
5.667993333E0,-5.135713003E0,-8.901045649E0,-3.410487932E0,1.082753848E1
5.678046333E0,-6.703138096E0,-5.873969588E0,-1.290933069E0,9.005669728E0
5.688099333E0,-8.019628760E0,-1.655820960E0,4.054737661E0,9.137673993E0
5.698152333E0,-8.886449829E0,2.947683152E0,9.404772753E0,1.327055301E1
5.708205333E0,-8.024628714E0,6.471621686E0,9.414391422E0,1.396092114E1
5.718258333E0,-6.574202898E0,9.137657323E0,7.135318669E0,1.332777917E1
5.728311333E0,-5.620868765E0,1.122366613E1,4.840721558E0,1.345352861E1
5.738364333E0,-4.729762748E0,1.253184848E1,2.983126634E0,1.372286145E1
5.748417333E0,-3.687377859E0,1.310831495E1,2.107214899E0,1.377915204E1
5.758470333E0,-3.245345020E0,1.317305766E1,1.379126476E0,1.363685089E1
5.768524333E0,-3.178658110E0,1.319621380E1,4.561997287E-1,1.358131232E1
5.778577333E0,-3.099816886E0,1.317733665E1,-3.782481579E-1,1.354230917E1
5.788630333E0,-3.071035721E0,1.321692698E1,-5.595855181E-1,1.358055798E1
5.798683333E0,-2.978318177E0,1.298045388E1,-5.281169729E-1,1.332822080E1
5.808736333E0,-2.767646213E0,1.276810874E1,-2.545409918E-1,1.306710593E1
5.818789333E0,-2.347927226E0,1.263351753E1,3.661480029E-1,1.285506094E1
5.828842333E0,-1.551693306E0,1.247393415E1,1.166489190E0,1.262408342E1
5.838895333E0,-4.977552690E-1,1.138270337E1,1.715999919E0,1.152208107E1
5.848948333E0,2.884697530E-1,1.009913312E1,1.883033820E0,1.027723314E1
5.859001333E0,8.565989667E-1,9.889110489E0,1.608443896E0,1.005561335E1
5.869054333E0,1.259454584E0,9.874679561E0,1.058336531E0,1.001077412E1
5.879108333E0,1.413873848E0,9.761137742E0,4.196826975E-1,9.871929034E0
5.889161333E0,1.146987776E0,9.481152592E0,-2.486411877E-1,9.553515472E0
5.899214333E0,5.905863225E-1,9.416634999E0,-8.259917164E-1,9.471223217E0
5.909267333E0,9.175114587E-2,9.515002708E0,-1.390304160E0,9.616477550E0
5.919320333E0,-6.996108013E-1,9.321169848E0,-2.074830680E0,9.574893470E0
5.929373333E0,-1.527757290E0,8.770165082E0,-2.717023358E0,9.307634170E0
5.939426333E0,-1.903113597E0,8.266702273E0,-2.883983585E0,8.959775061E0
5.949479333E0,-1.944210607E0,8.091692185E0,-2.432211331E0,8.670126254E0
5.959532333E0,-1.970910163E0,8.151700405E0,-1.727275690E0,8.562604024E0
5.969585333E0,-1.683011975E0,8.145977735E0,-6.901644051E-1,8.346604667E0
5.979638333E0,-6.726424925E-1,7.484541870E0,1.339642714E0,7.633181350E0
5.989692333E0,5.475619981E-1,5.861502154E0,7.106162113E0,9.227923473E0
5.999745333E0,2.440768147E0,2.063250269E0,1.804024254E1,1.832115449E1
6.009798333E0,2.007112321E0,-4.473710543E-1,1.139630283E1,1.158034364E1
6.019851333E0,4.413203555E-1,-2.117390808E0,-1.889710171E0,2.872126742E0
6.029904333E0,3.224486540E-1,-9.552305020E0,-3.874106644E0,1.031306000E1
6.039957333E0,3.664375497E-1,-2.090106648E1,-3.907639257E0,2.126637019E1
6.050010333E0,1.234274865E0,-3.239130132E1,-5.693543224E0,3.291103569E1
6.060063333E0,3.248697229E0,-4.095134904E1,-5.231621373E0,4.141179644E1
6.070116333E0,4.649097192E0,-3.870452602E1,-2.060606743E0,3.903716869E1
6.080169333E0,3.936099994E0,-3.191057833E1,-3.236564841E0,3.231490746E1
6.090223333E0,2.801227357E0,-2.280169457E1,-2.665184283E0,2.312719951E1
6.100276333E0,2.356109089E0,-1.749229061E1,5.050134909E-1,1.765747772E1
6.110329333E0,1.991091974E0,-1.428101965E1,9.058190739E-1,1.444757688E1
6.120382333E0,1.186518608E0,-1.254724537E1,-1.494274671E0,1.269149517E1
6.130435333E0,-5.237906545E-2,-1.216440126E1,-4.205550216E0,1.287097721E1
6.140488333E0,-8.846555154E-1,-1.248809494E1,-6.160369134E0,1.395296665E1
6.150541333E0,-1.237162366E0,-1.227614506E1,-6.582117105E0,1.398422590E1
6.160594333E0,-1.351175762E0,-1.117213461E1,-5.056620641E0,1.233740978E1
6.170647333E0,-1.774126359E0,-9.757195550E0,-3.304476743E0,1.045322706E1
6.180700333E0,-2.332358576E0,-8.342968091E0,-1.635891895E0,8.815960265E0
6.190754333E0,-2.693006505E0,-5.908382206E0,2.875882852E-1,6.499536241E0
6.200807333E0,-2.525652761E0,-2.301679843E0,3.586036549E0,4.953413984E0
6.210860333E0,-1.307802579E0,2.507792441E0,1.368530532E1,1.397451081E1
6.220913333E0,-4.732977547E-1,7.102372532E0,2.122743701E1,2.238909976E1
6.230966333E0,-1.981097766E0,9.008951336E0,1.461620311E1,1.728349923E1
6.241019333E0,-3.155183586E0,1.054887171E1,1.067486050E1,1.533579227E1
6.251072333E0,-3.760356373E0,1.142778658E1,6.259623281E0,1.356161752E1
6.261125333E0,-3.940338641E0,1.202954693E1,2.398255380E0,1.288362902E1
6.271178333E0,-4.117917995E0,1.241097250E1,3.749609264E-1,1.308166972E1
6.281231333E0,-4.190324944E0,1.262702478E1,-4.634269238E-2,1.330423713E1
6.291284333E0,-4.595230887E0,1.278361088E1,1.595646679E-1,1.358537135E1
6.301338333E0,-4.904668755E0,1.272104216E1,-1.660468912E-1,1.363481796E1
6.311391333E0,-5.384465252E0,1.259586380E1,-7.923422328E-1,1.372137227E1
6.321444333E0,-5.340667852E0,1.198549634E1,-1.051224124E0,1.316358340E1
6.331497333E0,-4.247663910E0,1.101227057E1,-1.241360375E0,1.186818130E1
6.341550333E0,-2.823090388E0,1.058075073E1,-1.587635994E0,1.106538356E1
6.351603333E0,-2.066282197E0,1.053583476E1,-1.752825683E0,1.087868255E1
6.361656333E0,-1.933615890E0,1.022913777E1,-1.824706675E0,1.056899638E1
6.371709333E0,-1.853815284E0,9.948236364E0,-1.884583333E0,1.029347814E1
6.381762333E0,-1.567965961E0,9.872219052E0,-1.978857406E0,1.018995107E1
6.391815333E0,-1.193763381E0,9.818802398E0,-1.964576751E0,1.008432017E1
6.401868333E0,-8.551542659E-1,9.803911879E0,-1.918067413E0,1.002631336E1
6.411922333E0,-7.677606113E-1,9.841135254E0,-1.859370139E0,1.004463323E1
6.421975333E0,-8.541325381E-1,1.001838658E1,-1.423833264E0,1.015504373E1
6.432028333E0,-9.966224592E-1,1.020824216E1,-1.184620163E0,1.032495953E1
6.442081333E0,-1.150405400E0,9.992636611E0,-1.832809746E0,1.022425599E1
6.452134333E0,-7.885930713E-1,9.782459614E0,-2.253820383E0,1.006966243E1
6.462187333E0,-1.001286162E-1,9.529950530E0,-2.010135916E0,9.740155504E0
6.472240333E0,4.458917453E-1,9.227981603E0,-1.575795967E0,9.372171404E0
6.482293333E0,7.553251185E-1,8.910329858E0,-1.160106297E0,9.017224675E0
6.492346333E0,9.053032764E-1,8.330241627E0,-6.681648409E-1,8.405887451E0
6.502399333E0,1.106925797E0,7.168116871E0,7.569296676E-1,7.292470550E0
6.512452333E0,1.527924959E0,3.661458614E0,4.831125693E0,6.251448578E0
6.522506333E0,8.783223961E-1,-7.962978011E-1,2.856660715E0,3.092903306E0
6.532559333E0,-2.467514773E-1,-9.043012537E0,8.749831975E-2,9.046801534E0
6.542612333E0,-1.047962474E-1,-2.064102676E1,2.994581330E-1,2.064346491E1
6.552665333E0,1.493518480E-1,-3.388896036E1,-6.013054383E-1,3.389462359E1
6.562718333E0,7.416414645E-1,-4.382536313E1,-1.282766848E0,4.385040451E1
6.572771333E0,3.724725195E0,-4.425344948E1,2.081390086E0,4.445867242E1
6.582824333E0,7.233042015E0,-3.078861927E1,3.105214158E0,3.177889753E1
6.592877333E0,6.315903901E0,-1.676171259E1,-3.177189875E-1,1.791498246E1
6.602930333E0,4.296773213E0,-1.217457191E1,-3.527698878E0,1.338383804E1
6.612984000E0,3.275302645E0,-1.127339436E1,-5.313982329E0,1.288624988E1
6.623038000E0,2.403522260E0,-1.590874884E1,-6.421263710E0,1.732333214E1
6.633091000E0,1.312484736E0,-1.978312094E1,-6.150055815E0,2.075855672E1
6.643144000E0,-9.663779555E-1,-1.817506413E1,-4.798086001E0,1.882255222E1
6.653197000E0,-2.818906413E0,-1.623522228E1,-2.418876171E0,1.665471818E1
6.663250000E0,-4.339993492E0,-1.381502697E1,6.832295343E-1,1.449680366E1
6.673303000E0,-4.865127252E0,-9.534798456E0,7.961857685E0,1.334065300E1
6.683356000E0,-3.700328857E0,-4.937543263E0,1.646906178E1,1.758697709E1
6.693409000E0,-2.724067791E0,-1.748890507E0,1.325117178E1,1.364084737E1
6.703462000E0,-2.512450333E0,5.320504314E-1,7.621511142E0,8.042569019E0
6.713515000E0,-1.631165152E0,2.600228734E0,4.912871522E0,5.792943622E0
6.723568000E0,-6.360984910E-1,4.727103726E0,3.752580453E0,6.068936561E0
6.733622000E0,3.406777874E-2,6.964401047E0,3.172524966E0,7.653035817E0
6.743675000E0,2.955681997E-1,9.250617344E0,2.418594335E0,9.566131944E0
6.753728000E0,-2.036753319E-1,1.127767452E1,1.276056583E0,1.135146451E1
6.763781000E0,-1.343804178E0,1.259402309E1,-4.992710866E-2,1.266561171E1
6.773834000E0,-2.264793853E0,1.320763224E1,-1.208032415E0,1.345474574E1
6.783887000E0,-2.699203384E0,1.317390200E1,-2.289811749E0,1.364113744E1
6.793940000E0,-3.274819957E0,1.307020163E1,-2.833881133E0,1.376900500E1
6.803993000E0,-3.918030344E0,1.297752560E1,-3.191599753E0,1.392671682E1
6.814046000E0,-4.379975583E0,1.260648000E1,-3.362829616E0,1.376285389E1
6.824099000E0,-4.677844443E0,1.216669571E1,-3.367625502E0,1.346297198E1
6.834152000E0,-4.987592506E0,1.217593314E1,-3.008514075E0,1.349742879E1
6.844206000E0,-4.510706753E0,1.217690729E1,-2.271738006E0,1.318272886E1
6.854259000E0,-3.881295504E0,1.199174351E1,-1.171639345E0,1.265855860E1
6.864312000E0,-3.524170083E0,1.187754037E1,5.560246003E-1,1.240181049E1
6.874365000E0,-3.024789800E0,1.227900084E1,2.985824540E0,1.299378171E1
6.884418000E0,-2.208188566E0,1.244587102E1,4.148907069E0,1.330373001E1
6.894471000E0,-1.900456915E0,1.098268950E1,3.664379883E0,1.173281233E1
6.904524000E0,-1.774015554E0,9.739919366E0,3.124930969E0,1.038163542E1
6.914577000E0,-1.118266326E0,9.233286781E0,2.920492430E0,9.748506572E0
6.924630000E0,-2.150707878E-1,8.946034711E0,3.092291812E0,9.467843532E0
6.934683000E0,8.236417204E-1,8.917607303E0,3.621805136E0,9.660205905E0
6.944736000E0,1.612360653E0,9.020028301E0,3.843973603E0,9.936636780E0
6.954790000E0,2.000059994E0,9.192211846E0,3.331054677E0,9.979625437E0
6.964843000E0,2.169002281E0,9.211753825E0,2.534131808E0,9.797081374E0
6.974896000E0,2.095619724E0,8.868473734E0,1.904293127E0,9.309553196E0
6.984949000E0,1.964819410E0,8.102649282E0,1.419427972E0,8.457435573E0
6.995002000E0,1.709206332E0,7.286461592E0,1.151607953E0,7.572325250E0
7.005055000E0,1.423753742E0,6.426224488E0,1.754355900E0,6.811842666E0
7.015108000E0,1.775332493E0,5.441872045E0,3.544546461E0,6.732725038E0
7.025161000E0,2.756713966E0,4.915657720E0,3.433925326E0,6.599621645E0
7.035214000E0,2.847653664E0,4.710534471E0,-3.153239679E-1,5.513410524E0
7.045267000E0,2.456222630E0,2.913523718E0,-2.475677193E0,4.544296164E0
7.055320000E0,1.936433371E0,-3.426877093E0,-2.081413475E0,4.452588333E0
7.065373000E0,2.436971111E-1,-1.453587640E1,-2.322250348E0,1.472222597E1
7.075427000E0,-8.956099816E-2,-2.541916090E1,-2.727519695E0,2.556523275E1
7.085480000E0,-1.185260068E0,-3.663609921E1,-4.560410718E0,3.693786611E1
7.095533000E0,-2.199287203E0,-4.072813042E1,-6.718447861E0,4.133709004E1
7.105586000E0,-3.526697835E0,-3.642893236E1,-8.855972387E0,3.765545057E1
7.115639000E0,-3.790041810E0,-2.783758800E1,-1.025516256E1,2.990759238E1
7.125692000E0,-4.529312009E0,-2.078835087E1,-1.065263523E1,2.379388233E1
7.135745000E0,-5.429475948E0,-1.714218039E1,-9.511789078E0,2.034226361E1
7.145798000E0,-5.621209658E0,-1.742516340E1,-4.330548484E0,1.881456797E1
7.155851000E0,-6.421216348E0,-1.988642487E1,3.292564795E0,2.115520968E1
7.165904000E0,-5.948974746E0,-2.022000853E1,1.930565369E1,2.858229014E1
7.175958000E0,-1.867681663E0,-1.652825432E1,2.908788175E1,3.350785416E1
7.186011000E0,-1.136682570E0,-1.311785409E1,1.164656600E1,1.757875544E1
7.196064000E0,-8.288148983E-1,-1.117910099E1,2.824006355E-1,1.121333952E1
7.206117000E0,2.037634056E-1,-8.678366720E0,-5.764547718E-1,8.699877502E0
7.216170000E0,1.172766907E-1,-6.123791292E0,3.518632185E-1,6.135012741E0
7.226223000E0,3.568667906E-1,-3.573838672E0,1.032240554E0,3.737003789E0
7.236276000E0,2.882860408E-1,-8.958881629E-1,6.996637917E-1,1.172712183E0
7.246329000E0,-3.664369650E-2,1.820203149E0,1.914963126E-2,1.820672671E0
7.256382000E0,-2.441326007E-1,4.459776628E0,-5.709724224E-1,4.502801107E0
7.266435000E0,-5.689279434E-1,7.004625798E0,-1.161593243E0,7.123044324E0
7.276488000E0,-9.234956454E-1,9.268365397E0,-1.679067736E0,9.464391677E0
7.286542000E0,-1.499223462E0,1.092509560E1,-2.051791481E0,1.121673897E1
7.296595000E0,-1.990682815E0,1.198000113E1,-2.390675635E0,1.237734120E1
7.306648000E0,-2.125034727E0,1.241544913E1,-1.976208617E0,1.275008040E1
7.316701000E0,-2.340792453E0,1.264511957E1,-1.315748652E0,1.292708601E1
7.326754000E0,-2.461662295E0,1.268125186E1,-1.014407716E0,1.295773718E1
7.336807000E0,-2.733004968E0,1.270670128E1,-1.255213013E0,1.305776142E1
7.346860000E0,-3.065262765E0,1.281788959E1,-1.609609246E0,1.327723508E1
7.356913000E0,-3.137844838E0,1.281285514E1,-1.599822761E0,1.328814358E1
7.366966000E0,-2.852790443E0,1.263311524E1,-1.131638542E0,1.300056229E1
7.377019000E0,-2.446567123E0,1.255187402E1,-2.948481882E-1,1.279148809E1
7.387072000E0,-2.181882089E0,1.256151959E1,7.013852119E-1,1.276888112E1
7.397125000E0,-2.045843547E0,1.252761510E1,1.570647494E0,1.279036940E1
7.407179000E0,-1.860835451E0,1.258752333E1,2.050248401E0,1.288844330E1
7.417232000E0,-1.620639726E0,1.267629342E1,2.230635003E0,1.297268748E1
7.427285000E0,-1.461462728E0,1.272879674E1,2.146536255E0,1.299098755E1
7.437338000E0,-1.060693836E0,1.285090531E1,1.898775694E0,1.303365597E1
7.447391000E0,-3.951528604E-1,1.193742288E1,1.605482281E0,1.205138100E1
7.457444000E0,-1.257614757E-1,9.765659979E0,1.663701838E0,9.907160773E0
7.467497000E0,7.269774516E-1,8.614235044E0,2.540474868E0,9.010413651E0
7.477550000E0,1.679080600E0,8.129157634E0,3.870856177E0,9.158932419E0
7.487603000E0,2.111228282E0,7.615350516E0,3.581346497E0,8.676225623E0
7.497656000E0,2.286433082E0,7.498012685E0,1.347621240E0,7.953870345E0
7.507709000E0,2.690503312E0,7.829432868E0,-1.364012155E0,8.390432424E0
7.517762000E0,2.913858764E0,7.812471265E0,-3.467391281E0,9.030397691E0
7.527816000E0,2.618715876E0,7.807871845E0,-4.727425908E0,9.495740693E0
7.537869000E0,2.395671350E0,7.684690307E0,-4.981773357E0,9.466349461E0
7.547922000E0,2.274414861E0,7.307456605E0,-4.971716146E0,9.126327105E0
7.557975000E0,2.153280433E0,6.615605278E0,-5.433591219E0,8.827613684E0
7.568028000E0,2.279023929E0,6.270973896E0,-5.889086394E0,8.899460783E0
7.578081000E0,2.599238800E0,5.578912069E0,-6.490186011E0,8.944429365E0
7.588134000E0,3.531410691E0,1.685023710E0,-6.617779273E0,7.687988610E0
7.598187000E0,2.108275145E0,-1.685709120E1,-5.173925142E0,1.775882455E1
7.608239333E0,1.280802768E0,-4.160305163E1,-3.125951309E0,4.173998003E1
7.618292333E0,1.597621869E0,-6.185784875E1,-3.543011566E0,6.197982558E1
7.628345333E0,4.721272883E-1,-7.273694899E1,-4.555790833E0,7.288101181E1
7.638399333E0,-2.977916765E0,-7.094249464E1,-7.102538593E0,7.135931325E1
7.648452333E0,-2.085818183E0,-4.670968702E1,-6.045472516E0,4.714544768E1
7.658505333E0,1.492173474E0,-2.364255225E1,-1.427527535E0,2.373256609E1
7.668558333E0,1.646028044E0,-1.114888842E1,1.010590770E1,1.513725510E1
7.678611333E0,2.534935216E0,1.616100824E0,4.568488061E1,4.578368700E1
7.688664333E0,1.581569508E-1,6.148967063E-1,2.708184239E1,2.708928384E1
7.698717333E0,-1.690305646E0,-4.297746774E0,1.478323467E0,4.849041223E0
7.708770333E0,-1.736523061E0,-5.750989779E0,-2.130459920E0,6.374029750E0
7.718823333E0,-1.373351474E0,-4.722789651E0,-2.932660486E0,5.726371790E0
7.728876333E0,-1.031562935E0,-2.485478881E0,-3.272422307E0,4.236800103E0
7.738929333E0,-8.311370469E-1,4.728163826E-1,-3.253988374E0,3.391575513E0
7.748982333E0,-7.698203661E-1,3.661404235E0,-3.089418490E0,4.852114072E0
7.759036333E0,-1.002537283E0,6.499726912E0,-2.648210986E0,7.089749810E0
7.769089333E0,-1.464070879E0,9.319650156E0,-2.123354384E0,9.669954313E0
7.779142333E0,-2.058808140E0,1.152217584E1,-1.247276587E0,1.177093564E1
7.789195333E0,-2.500096335E0,1.254668754E1,1.858280218E-1,1.279470133E1
7.799248333E0,-3.203250915E0,1.262348838E1,1.622563752E0,1.312425192E1
7.809301333E0,-4.289479103E0,1.258024121E1,2.078538984E0,1.345297083E1
7.819354333E0,-5.813420500E0,1.252284377E1,1.360393313E0,1.387328886E1
7.829407333E0,-8.080199482E0,1.295954190E1,-3.297911124E-1,1.527573606E1
7.839460333E0,-9.302760474E0,1.349449547E1,-1.972270517E0,1.650856176E1
7.849513333E0,-9.591305364E0,1.376542855E1,-2.440374044E0,1.695392542E1
7.859566333E0,-9.600087882E0,1.403397713E1,-1.807326411E0,1.709914121E1
7.869620333E0,-8.922071652E0,1.431193038E1,-1.841872931E-2,1.686520243E1
7.879673333E0,-7.774870745E0,1.457621751E1,2.382688923E0,1.669107361E1
7.889726333E0,-5.851885239E0,1.453173423E1,4.220055989E0,1.622420208E1
7.899779333E0,-3.408155478E0,1.400677004E1,4.559633038E0,1.511937115E1
7.909832333E0,-1.346165576E0,1.325323702E1,4.326085889E0,1.400626547E1
7.919885333E0,-5.102481376E-3,1.219058276E1,3.469371732E0,1.267465480E1
7.929938333E0,5.447686370E-1,1.084135061E1,2.406680049E0,1.111862243E1
7.939991333E0,5.184063191E-1,9.664106707E0,1.390771937E0,9.777420423E0
7.950044333E0,7.543932916E-1,9.108566841E0,6.438953876E-1,9.162406911E0
7.960097333E0,1.232128498E0,8.809264829E0,3.486215222E-1,8.901843878E0
7.970150333E0,1.653550633E0,8.658268086E0,3.598271263E-1,8.822092241E0
7.980203333E0,2.058154128E0,8.579868034E0,5.090726280E-1,8.837945962E0
7.990257333E0,2.345943558E0,8.435543548E0,4.410601544E-1,8.766777070E0
8.000310333E0,2.543275684E0,8.286025566E0,-5.252551993E-2,8.667711914E0
8.010363333E0,2.804494781E0,8.008195699E0,-2.811475772E-1,8.489725160E0
8.020416333E0,2.987046023E0,7.721931224E0,-8.087704968E-1,8.318940767E0
8.030469333E0,2.938060097E0,7.491159164E0,-1.529802353E0,8.190845987E0
8.040522333E0,2.628868396E0,7.490647532E0,-2.761072188E0,8.405014523E0
8.050575333E0,2.090274054E0,7.222697121E0,-3.946103995E0,8.491662738E0
8.060628333E0,1.578716944E0,6.764029831E0,-5.089400132E0,8.610832738E0
8.070681333E0,1.400633851E0,5.777867675E0,-5.581231075E0,8.154487744E0
8.080734333E0,7.060676622E-1,-2.228059890E0,-5.055672807E0,5.569794426E0
8.090787333E0,-2.894709425E0,-2.349179232E1,-3.151877278E0,2.387839985E1
8.100840333E0,-4.353436533E0,-4.208917511E1,-2.419985388E0,4.238286683E1
8.110894333E0,-4.048970844E0,-5.375495974E1,-2.995595822E0,5.399040151E1
8.120947333E0,-4.012705536E0,-5.941119129E1,-4.081928383E0,5.968629320E1
8.131000333E0,-3.142039922E0,-5.328820224E1,-6.529483978E0,5.377861167E1
8.141053333E0,1.096799954E0,-3.278950606E1,-6.020670381E0,3.335570640E1
8.151106333E0,3.455726085E0,-2.038044677E1,-3.590074636E0,2.098078381E1
8.161159333E0,3.871285948E0,-1.485627107E1,-1.269612951E0,1.540479023E1
8.171212333E0,4.972865708E0,-1.299451877E1,4.137769293E0,1.451578611E1
8.181265333E0,8.041858705E0,-1.347127618E1,2.555018530E1,2.998264068E1
8.191318333E0,6.088547784E0,-1.297153103E1,2.922195373E1,3.254617660E1
8.201371333E0,1.901927344E0,-1.162012606E1,8.396122205E0,1.446165707E1
8.211424333E0,-9.869179085E-2,-1.140970699E1,1.098560843E0,1.146289621E1
8.221477333E0,-1.174959613E0,-9.368795419E0,-9.666839111E-1,9.491540206E0
8.231531333E0,-1.691647728E0,-5.947649767E0,-3.067085634E0,6.902407122E0
8.241584333E0,-2.289199838E0,-1.894223052E0,-5.069813129E0,5.876352783E0
8.251637333E0,-2.883024934E0,2.226122122E0,-5.269565710E0,6.405917205E0
8.261690333E0,-3.313601615E0,5.861144305E0,-4.347768534E0,8.014740136E0
8.271743333E0,-3.833077317E0,9.048053421E0,-3.214575802E0,1.033891919E1
8.281796333E0,-4.713707463E0,1.164180636E1,-1.197024520E0,1.261679679E1
8.291849333E0,-6.149975123E0,1.338978704E1,1.696191891E0,1.483191350E1
8.301902333E0,-8.304528496E0,1.435262700E1,4.215865874E0,1.710954764E1
8.311955333E0,-1.025516724E1,1.504506597E1,4.005860785E0,1.864321286E1
8.322008333E0,-1.119816174E1,1.536551210E1,1.735861741E0,1.909217128E1
8.332061333E0,-1.175164865E1,1.557824082E1,-2.965016346E-1,1.951591008E1
8.342114333E0,-1.159812883E1,1.572084038E1,-1.571623979E0,1.959927081E1
8.352168333E0,-1.048386237E1,1.542328259E1,-1.817570733E0,1.873746459E1
8.362221333E0,-8.197629114E0,1.469453241E1,-8.334445775E-1,1.684710763E1
8.372274333E0,-5.383445497E0,1.370119806E1,5.852512499E-1,1.473250938E1
8.382327333E0,-2.958739360E0,1.283880041E1,2.034867300E0,1.333152727E1
8.392380333E0,-1.265954056E0,1.211260078E1,3.119943295E0,1.257186476E1
8.402433333E0,-1.564829660E-1,1.150228244E1,3.336436454E0,1.197742863E1
8.412486333E0,4.977373619E-1,1.099809107E1,2.835500811E0,1.136863292E1
8.422539333E0,7.845827584E-1,1.051167991E1,2.203872882E0,1.076884582E1
8.432592333E0,9.192568526E-1,9.926591141E0,1.694588585E0,1.011206583E1
8.442645333E0,9.094072909E-1,9.458920308E0,1.229332652E0,9.581724990E0
8.452698333E0,6.815553302E-1,9.153693897E0,7.112085342E-1,9.206543717E0
8.462751333E0,8.390000170E-1,8.845393605E0,3.873254486E-1,8.893533047E0
8.472805333E0,9.828388178E-1,8.438029200E0,2.333260874E-1,8.498279237E0
8.482858333E0,9.868225258E-1,8.060579150E0,1.330065962E-1,8.121849893E0
8.492911333E0,9.316235675E-1,7.776659993E0,7.196771298E-3,7.832267546E0
8.502964333E0,7.536353463E-1,7.605955794E0,-1.244661713E-1,7.644214911E0
8.513017333E0,4.346020875E-1,7.468562014E0,1.094580498E-3,7.481196344E0
8.523070333E0,1.628429459E-1,7.341141829E0,-2.006411752E-2,7.342975130E0
8.533123333E0,2.381643660E-1,7.419872834E0,-3.794234117E-1,7.433383971E0
8.543176333E0,6.336259228E-1,7.551765554E0,-5.791865909E-1,7.600401430E0
8.553229333E0,9.984122919E-1,7.403509401E0,-1.624009330E-2,7.470544980E0
8.563282333E0,1.273091752E0,6.433664485E0,1.776731440E0,6.794819786E0
8.573335333E0,1.212371341E0,4.813365945E0,2.411268944E0,5.518383269E0
8.583388333E0,5.415964495E-1,2.882082070E0,-1.310576205E0,3.212060672E0
8.593442333E0,-1.679984725E0,-4.954448733E0,-2.242817677E0,5.692024426E0
8.603495333E0,-3.811995766E0,-1.851026279E1,-1.753368890E0,1.897986941E1
8.613548708E0,-4.517591558E0,-3.514967618E1,-1.514030659E0,3.547112429E1
8.623601708E0,-3.210779205E0,-4.445518777E1,-1.768704967E0,4.460606618E1
8.633654708E0,8.581812233E-3,-4.427963565E1,-2.358908297E0,4.434242500E1
8.643707708E0,1.255286250E0,-3.854717745E1,-5.816286221E0,3.900371544E1
8.653760708E0,2.157573459E0,-2.729995757E1,-8.275063791E0,2.860803187E1
8.663813708E0,3.414432171E0,-2.031815755E1,-6.919110854E0,2.173384384E1
8.673866708E0,3.463132753E0,-1.761158433E1,-4.227231692E0,1.843992080E1
8.683919708E0,2.724710400E0,-1.661281675E1,-1.981208571E0,1.695095616E1
8.693972708E0,2.082899691E0,-1.581609152E1,-6.769028469E-1,1.596701035E1
8.704025708E0,1.241870983E0,-1.524699605E1,1.154492970E0,1.534099039E1
8.714079708E0,-8.140128180E-2,-1.446436729E1,3.545665033E0,1.489282672E1
8.724132708E0,-1.677941562E0,-1.258339520E1,6.768038682E0,1.438623196E1
8.734185708E0,-3.596391968E0,-1.000134662E1,9.144709650E0,1.402093735E1
8.744238708E0,-4.770765470E0,-7.360806016E0,7.988305811E0,1.186400852E1
8.754291708E0,-4.996435835E0,-4.667975512E0,5.057261496E0,8.504719882E0
8.764344708E0,-4.579972870E0,-1.509908956E0,2.672564639E0,5.513490573E0
8.774397708E0,-3.680847981E0,1.953641873E0,1.128776915E0,4.317348231E0
8.784450708E0,-2.828752247E0,5.470421661E0,4.106265664E-1,6.172193014E0
8.794503708E0,-2.352428412E0,8.663879659E0,5.045995811E-1,8.991737925E0
8.804556708E0,-2.408170212E0,1.121039762E1,8.828675830E-1,1.150007625E1
8.814609708E0,-3.158400432E0,1.290614747E1,1.204629335E0,1.334148671E1
8.824662708E0,-4.087896051E0,1.362496907E1,1.601173468E0,1.431483262E1
8.834715708E0,-5.255357561E0,1.388008309E1,1.249620152E0,1.489419485E1
8.844769708E0,-6.378710598E0,1.407030588E1,-3.065029315E-1,1.545171190E1
8.854822708E0,-7.007381591E0,1.411726019E1,-2.160088931E0,1.590806136E1
8.864875708E0,-7.303119725E0,1.408270081E1,-3.151434059E0,1.617373044E1
8.874928708E0,-7.301808195E0,1.408428658E1,-3.222519829E0,1.618851955E1
8.884981708E0,-6.768224038E0,1.378343096E1,-2.520893712E0,1.556106458E1
8.895034708E0,-5.668251677E0,1.293732482E1,-9.946394491E-1,1.415954654E1
8.905087708E0,-4.177323368E0,1.251224394E1,8.123525012E-1,1.321613391E1
8.915140708E0,-2.615493768E0,1.229258743E1,2.525156332E0,1.281892850E1
8.925193708E0,-1.315624107E0,1.212204286E1,3.671480742E0,1.273399234E1
8.935246708E0,-6.857283419E-1,1.182080367E1,3.763754482E0,1.242447063E1
8.945299708E0,-3.479439761E-1,1.165288333E1,3.132422422E0,1.207157095E1
8.955352708E0,-1.649821863E-1,1.156107269E1,2.338281805E0,1.179632072E1
8.965405708E0,-2.042743426E-1,1.098134465E1,1.393893181E0,1.107134122E1
8.975459708E0,-4.109982301E-1,9.682762249E0,6.592010593E-1,9.713874116E0
8.985512708E0,-4.943964456E-1,8.820901957E0,2.434020460E-1,8.838098423E0
8.995565708E0,-2.947082387E-1,8.400335124E0,-2.013762798E-3,8.405503388E0
9.005618708E0,4.307792692E-2,8.210178993E0,-1.243233165E-2,8.210301418E0
9.015671708E0,5.120115117E-1,7.995016075E0,4.748009276E-1,8.025451623E0
9.025724708E0,1.244300209E0,7.848500054E0,1.591191101E0,8.104265866E0
9.035777708E0,2.162839754E0,7.665780997E0,3.415359832E0,8.666415457E0
9.045830708E0,2.779103247E0,7.117702762E0,4.671146457E0,8.955708609E0
9.055883708E0,2.635729519E0,6.557275209E0,3.903763137E0,8.073679142E0
9.065936708E0,2.580661612E0,6.277732108E0,2.757077370E0,7.326063772E0
9.075989708E0,2.449503010E0,6.083189980E0,6.036051482E-1,6.585560303E0
9.086042708E0,2.148282233E0,5.267030942E0,-5.084212482E-2,5.688524977E0
9.096095708E0,9.410060097E-1,3.470847570E0,5.455346954E-1,3.637290649E0
9.106149708E0,1.157367168E-1,2.067804666E0,-8.196743846E-2,2.072662487E0
9.116202708E0,8.333169620E-1,-2.222661155E-1,-9.721417022E-1,1.299568726E0
9.126255708E0,5.043474931E-1,-1.142335439E1,3.412891503E-1,1.143957474E1
9.136308708E0,-1.120394931E0,-2.859614027E1,2.302102012E0,2.871052415E1
9.146361708E0,8.790163144E-2,-4.056524570E1,-3.380965340E-1,4.056674987E1
9.156414708E0,2.713431121E0,-4.396738498E1,-2.754461911E0,4.413706731E1
9.166467708E0,5.087381673E0,-3.872017551E1,-5.443384720E0,3.943049431E1
9.176520708E0,5.017713268E0,-3.058774870E1,-7.734989226E0,3.194711059E1
9.186573708E0,3.297311565E0,-2.104147684E1,-8.251672005E0,2.284088663E1
9.196626708E0,4.825354783E-1,-1.586163314E1,-8.970483089E0,1.822892792E1
9.206679708E0,-3.007985195E0,-1.489070415E1,-8.956360309E0,1.763511937E1
9.216732708E0,-6.490035737E0,-1.506412087E1,-7.559383307E0,1.806080224E1
9.226786708E0,-8.904439958E0,-1.505926769E1,-4.279326875E0,1.801064221E1
9.236839708E0,-1.070745639E1,-1.505513253E1,7.084369540E-2,1.847462196E1
9.246892708E0,-1.131089489E1,-1.311874053E1,5.088742905E0,1.805361462E1
9.256945708E0,-9.332529234E0,-9.528019779E0,8.496290857E0,1.581348226E1
9.266998708E0,-6.698790107E0,-6.421062566E0,8.870243686E0,1.283686318E1
9.277051708E0,-4.510934795E0,-4.090855912E0,8.109518591E0,1.014139668E1
9.287104708E0,-2.153407172E0,-2.347227899E0,7.459706991E0,8.111342037E0
9.297157708E0,2.761297708E-1,-6.297328466E-1,7.686748527E0,7.717442195E0
9.307210708E0,1.822263854E0,9.403334337E-1,7.138276191E0,7.426968392E0
9.317263708E0,2.494317825E0,2.371216686E0,5.507529845E0,6.494395659E0
9.327316708E0,2.936085784E0,4.104906771E0,4.203886099E0,6.568372528E0
9.337369708E0,3.076889076E0,6.125034994E0,3.431001134E0,7.665185507E0
9.347422708E0,3.095702493E0,8.179341363E0,2.708708618E0,9.155441083E0
9.357476708E0,2.745852470E0,9.908071840E0,1.610358274E0,1.040686539E1
9.367529708E0,2.068630585E0,1.124076806E1,8.018392074E-1,1.145761953E1
9.377582708E0,1.200838878E0,1.210315168E1,3.218015500E-1,1.216683405E1
9.387635708E0,3.052999400E-1,1.243945546E1,-7.077935776E-2,1.244340266E1
9.397688708E0,-4.274305140E-1,1.229128000E1,-4.861281173E-1,1.230831350E1
9.407741708E0,-1.037583009E0,1.207386415E1,-8.139125383E-1,1.214566703E1
9.417794708E0,-1.514976884E0,1.185573610E1,-1.106144682E0,1.200321580E1
9.427847708E0,-2.078783398E0,1.166751423E1,-1.331230910E0,1.192578737E1
9.437900708E0,-3.216675830E0,1.177474047E1,-1.669951926E0,1.231991299E1
9.447953708E0,-4.093551186E0,1.201369162E1,-2.314788716E0,1.290132530E1
9.458006708E0,-4.273757695E0,1.205947883E1,-2.792453610E0,1.309556534E1
9.468059708E0,-4.228353773E0,1.198592670E1,-2.669391355E0,1.298718848E1
9.478112708E0,-4.121644134E0,1.183843887E1,-2.330905396E0,1.275028255E1
9.488166708E0,-4.052284754E0,1.174686913E1,-1.883994518E0,1.256818927E1
9.498219708E0,-3.908550838E0,1.167085884E1,-1.364472331E0,1.238335578E1
9.508272708E0,-3.716554588E0,1.143847996E1,-8.412728298E-1,1.205650621E1
9.518325708E0,-3.451324301E0,1.133134377E1,1.589846241E-1,1.184636093E1
9.528378708E0,-2.889092882E0,1.195035107E1,3.805908229E0,1.287022478E1
9.538431708E0,-2.963802756E0,1.199388125E1,5.743654447E0,1.362449561E1
9.548484708E0,-3.500286546E0,1.015860398E1,3.321559968E0,1.124642171E1
9.558537708E0,-3.554426501E0,8.940575750E0,2.307390819E0,9.894033297E0
9.568590708E0,-3.258554758E0,8.081460727E0,2.102920704E0,8.963841926E0
9.578643708E0,-2.622338811E0,7.258069267E0,1.821494799E0,7.929317350E0
9.588696708E0,-1.742300988E0,6.536007131E0,1.257749535E0,6.880184289E0
9.598749708E0,-7.688318212E-1,6.083706290E0,2.313123612E-1,6.136455817E0
9.608802500E0,3.062972557E-2,6.213468869E0,-8.289843214E-1,6.268600208E0
9.618855500E0,5.678096634E-1,5.749998091E0,-3.380240285E-1,5.787844685E0
9.628909500E0,7.625913072E-1,4.630756815E0,-2.076732560E-1,4.697720975E0
9.638962500E0,8.471480390E-1,2.196964982E0,-1.808142098E0,2.968786415E0
9.649015500E0,6.372169903E-1,-8.356891481E0,-4.444316955E-1,8.392925608E0
9.659068500E0,-9.252414778E-1,-2.516576128E1,1.626997696E0,2.523526766E1
9.669121500E0,-2.954159528E-3,-3.738271381E1,1.134500754E0,3.739992503E1
9.679174500E0,2.957274925E0,-4.407446855E1,-7.534367602E-2,4.417363387E1
9.689227500E0,6.875300590E0,-4.323245078E1,-2.452135134E0,4.384435569E1
9.699280500E0,1.007152257E1,-3.447748963E1,-4.301029986E0,3.617501509E1
9.709333500E0,9.613069870E0,-2.353333328E1,-4.029330339E0,2.573838360E1
9.719386500E0,8.429499282E0,-1.743431196E1,-2.788362898E0,1.956493443E1
9.729439500E0,7.097784807E0,-1.509109057E1,-3.624880187E0,1.706632123E1
9.739492500E0,3.405376004E0,-1.477423229E1,-5.820908445E0,1.624061270E1
9.749546500E0,-1.839121816E-1,-1.458615193E1,-8.036740052E0,1.665469430E1
9.759599500E0,-3.723725613E0,-1.394351135E1,-8.249683367E0,1.662362526E1
9.769652500E0,-6.055889331E0,-1.362632797E1,-6.215428855E0,1.615494244E1
9.779705500E0,-7.322804961E0,-1.274463684E1,-3.074241457E0,1.501666412E1
9.789758500E0,-8.135614715E0,-1.054114052E1,9.240986395E-1,1.334757763E1
9.799811500E0,-9.168850465E0,-7.114839381E0,7.619069345E0,1.388304635E1
9.809864500E0,-9.169743919E0,-2.973485160E0,1.511345266E1,1.792602212E1
9.819917500E0,-6.706910135E0,6.979447103E-1,1.257978162E1,1.427307521E1
9.829970500E0,-4.492101790E0,3.716706031E0,8.309893316E0,1.015121713E1
9.840023500E0,-2.673996330E0,6.683577406E0,6.283312690E0,9.555128553E0
9.850076500E0,-1.120518892E0,9.101064863E0,5.283425950E0,1.058298323E1
9.860129500E0,-9.958232179E-2,1.059097634E1,4.647930672E0,1.156641500E1
9.870182500E0,6.166828115E-1,1.162131772E1,3.581434790E0,1.217628837E1
9.880236500E0,7.885792572E-1,1.223172961E1,2.737876868E0,1.255918135E1
9.890289500E0,5.911454260E-1,1.255411351E1,1.813453124E0,1.269818220E1
9.900342500E0,4.342527529E-1,1.263117162E1,1.262640731E0,1.270154848E1
9.910395500E0,3.575031504E-2,1.260176715E1,5.398102347E-1,1.261337419E1
9.920448500E0,-6.040979588E-1,1.264993183E1,-3.815460241E-1,1.267009420E1
9.930501500E0,-1.504048877E0,1.258660882E1,-1.146043743E0,1.272785532E1
9.940554500E0,-2.618993618E0,1.248092391E1,-1.585879490E0,1.285097673E1
9.950607500E0,-3.614837009E0,1.230369480E1,-2.132007093E0,1.299974641E1
9.960660500E0,-3.944961742E0,1.192993493E1,-2.899983906E0,1.289557976E1
9.970713500E0,-3.611822477E0,1.145251796E1,-3.259216955E0,1.244298696E1
9.980766500E0,-3.279558833E0,1.110377599E1,-3.062563398E0,1.197616975E1
9.990819500E0,-3.065168040E0,1.081676424E1,-2.485540277E0,1.151414583E1
1.000087250E1,-2.841106537E0,1.077622198E1,-1.828909653E0,1.129352722E1
1.001092550E1,-2.553990999E0,1.076520583E1,-1.229972337E0,1.113217672E1
1.002097950E1,-2.309466434E0,1.069131339E1,-6.553652859E-1,1.095752349E1
1.003103250E1,-2.134604134E0,1.057039765E1,2.556523282E-2,1.078380707E1
1.004108550E1,-2.020315042E0,1.022429862E1,1.584876108E0,1.054181139E1
1.005113850E1,-2.255306014E0,9.353821285E0,2.818548564E0,1.002619538E1
1.006119150E1,-2.224948148E0,8.592066495E0,2.401377794E0,9.194597121E0
1.007124450E1,-1.849414669E0,8.204372708E0,1.724632748E0,8.585244567E0
1.008129750E1,-1.516436349E0,7.809467551E0,1.280656003E0,8.057756662E0
1.009135050E1,-1.180515126E0,7.512752931E0,1.185863281E0,7.696839890E0
1.010140350E1,-6.826234704E-1,7.316453716E0,1.607440513E0,7.521990081E0
1.011145650E1,1.269631882E-1,6.699239758E0,2.988159918E0,7.336554551E0
1.012150950E1,2.013609747E0,4.775355535E0,8.888420341E0,1.028895820E1
1.013156250E1,4.256044432E0,1.461152533E0,1.272850672E1,1.350050977E1
1.014161550E1,2.920980672E0,-1.114471117E0,3.082391306E0,4.390365602E0
1.015166850E1,1.027277511E0,-6.931275401E0,-1.692733848E0,7.208552258E0
1.016172150E1,1.319231546E0,-1.558862314E1,-1.017706715E0,1.567741274E1
1.017177550E1,3.132424176E0,-2.588274219E1,-2.986311613E0,2.624207464E1
1.018182850E1,5.532907346E0,-3.487394021E1,-6.702898360E0,3.594069581E1
1.019188150E1,7.381259576E0,-3.637340720E1,-5.390106061E0,3.750414628E1
1.020193450E1,7.392411970E0,-3.270846833E1,-5.196976621E0,3.393376226E1
1.021198750E1,2.929723429E0,-2.789271555E1,-7.442200427E0,2.901677458E1
1.022204050E1,-1.293448103E0,-2.218441103E1,-6.465259915E0,2.314348043E1
1.023209350E1,-3.101963983E0,-1.571708179E1,-4.634587326E0,1.667717722E1
1.024214650E1,-3.387570355E0,-1.107035330E1,-3.220834077E0,1.201674362E1
1.025219950E1,-3.523033092E0,-9.555154953E0,-1.517254229E0,1.029634929E1
1.026225250E1,-3.195617375E0,-1.005644611E1,-2.054009914E-1,1.055396931E1
1.027230550E1,-2.511697211E0,-1.134967245E1,2.613658436E-1,1.162720946E1
1.028235850E1,-1.338694296E0,-1.090584072E1,4.707967544E-1,1.099777767E1
1.029241250E1,-4.076591045E-1,-9.410042848E0,5.182258229E-1,9.433114563E0
1.030246550E1,-3.581889557E-1,-7.408515787E0,4.032449683E-1,7.428123047E0
1.031251850E1,-5.349779130E-1,-5.422031273E0,6.335398956E-1,5.485070400E0
1.032257150E1,-8.017462367E-1,-3.443777885E0,9.154459298E-1,3.652457310E0
1.033262450E1,-1.034005463E0,-1.338066305E0,1.280318034E0,2.121038190E0
1.034267750E1,-1.109183407E0,1.192666517E0,1.723008392E0,2.370970090E0
1.035273050E1,-1.121577750E0,4.167075537E0,2.822694240E0,5.156554853E0
1.036278350E1,-9.722615701E-1,7.636716827E0,5.917215010E0,9.709694636E0
1.037283650E1,-6.129635438E-1,1.059586812E1,8.869930276E0,1.383198499E1
1.038288950E1,-8.031687912E-1,1.215967554E1,9.034598393E0,1.516992939E1
1.039294250E1,-1.485091911E0,1.283365953E1,7.430350460E0,1.490363791E1
1.040299550E1,-2.138260398E0,1.314457119E1,5.294373107E0,1.433116520E1
1.041304850E1,-2.701972041E0,1.312190972E1,3.507835886E0,1.384882956E1
1.042310150E1,-3.410635867E0,1.296510845E1,2.161576463E0,1.357935517E1
1.043315550E1,-4.248241615E0,1.290102530E1,8.735038519E-1,1.361054810E1
1.044320850E1,-4.720602207E0,1.275092728E1,-3.652054683E-1,1.360160309E1
1.045326150E1,-4.993243255E0,1.231231126E1,-1.371822281E0,1.335692267E1
1.046331450E1,-4.859898672E0,1.173112141E1,-1.935291556E0,1.284457777E1
1.047336750E1,-4.156558443E0,1.115641028E1,-1.801223087E0,1.204104950E1
1.048342050E1,-3.451890019E0,1.057337271E1,-1.430784434E0,1.121422754E1
1.049347350E1,-2.946493244E0,1.027618915E1,-1.097799463E0,1.074649010E1
1.050352650E1,-2.567320020E0,1.006488013E1,-7.395219219E-1,1.041344500E1
1.051357950E1,-2.359980676E0,9.894651310E0,-3.836719986E-1,1.017943208E1
1.052363250E1,-2.345840355E0,9.745935566E0,-9.078387022E-2,1.002469295E1
1.053368550E1,-2.541994852E0,9.514978734E0,1.130010239E-1,9.849331316E0
1.054373850E1,-2.998068902E0,9.196063991E0,7.762189742E-1,9.703531623E0
1.055379150E1,-4.504315454E0,8.449657558E0,5.041513774E0,1.082138770E1
1.056384450E1,-5.759346035E0,7.947862959E0,5.250725981E0,1.113142918E1
1.057389750E1,-5.425681105E0,7.734171200E0,2.943786567E0,9.895519136E0
1.058395150E1,-4.042050080E0,7.787156914E0,2.056517200E0,9.011506237E0
1.059400450E1,-2.360202432E0,7.784428019E0,1.297741567E0,8.237233047E0
1.060405750E1,-8.019574673E-1,6.974606777E0,2.985417573E0,7.628957568E0
1.061411033E1,1.236513325E0,5.063731440E0,7.858967739E0,9.430467392E0
1.062416333E1,2.656208223E0,3.464826692E0,1.047932376E1,1.135238709E1
1.063421633E1,1.464754418E0,3.049039373E0,4.310285543E0,5.479115628E0
1.064426933E1,5.799899253E-1,2.761334143E0,-2.542404449E0,3.798048834E0
1.065432233E1,8.044400489E-1,-2.377895960E0,-3.000120982E0,3.911807625E0
1.066437533E1,8.110504724E-2,-1.381359674E1,-2.882447521E0,1.411136197E1
1.067442833E1,-1.238894165E0,-2.827496441E1,-4.422987117E0,2.864561548E1
1.068448133E1,-3.307225519E0,-4.390525948E1,-5.885190395E0,4.442122259E1
1.069453433E1,-4.409688502E0,-4.745147415E1,-5.092057691E0,4.792720317E1
1.070458733E1,-5.538240591E0,-4.128804575E1,-7.394898207E0,4.230909300E1
1.071464133E1,-3.765123900E0,-2.570136156E1,-7.561264356E0,2.705381419E1
1.072469433E1,-3.205667277E-1,-1.567326509E1,-3.646804322E0,1.609512918E1
1.073474733E1,1.364850353E0,-1.211187923E1,-1.189732969E-1,1.218911767E1
1.074480033E1,2.625652428E0,-9.334110321E0,4.911053403E-1,9.708802738E0
1.075485333E1,3.734988228E0,-8.786026239E0,-5.143199193E-1,9.560801176E0
1.076490633E1,4.803375100E0,-1.057540638E1,-1.764333004E0,1.174838301E1
1.077495933E1,4.923830373E0,-1.176488558E1,-1.956937948E0,1.290295487E1
1.078501233E1,4.280405394E0,-9.983210900E0,-8.125267482E-1,1.089250063E1
1.079506533E1,3.461853675E0,-7.712132460E0,5.337233198E-1,8.470317499E0
1.080511833E1,2.335683741E0,-6.234911778E0,1.438281734E0,6.811622256E0
1.081517133E1,1.016442839E0,-4.383669269E0,2.451142277E0,5.124237579E0
1.082522433E1,6.099733142E-3,-1.691244562E0,4.871245193E0,5.156488642E0
1.083527733E1,-3.311752945E-1,2.024048197E0,9.756403252E0,9.969646563E0
1.084533033E1,4.059813190E-2,5.377581325E0,1.210209801E1,1.324314182E1
1.085538433E1,4.850073157E-1,7.441754869E0,1.022514062E1,1.265576739E1
1.086543733E1,6.910100587E-1,8.976280019E0,7.728549103E0,1.186514092E1
1.087549033E1,7.042643809E-1,1.025998067E1,5.534222385E0,1.167864757E1
1.088554333E1,6.377550803E-1,1.143585340E1,3.525492139E0,1.198392962E1
1.089559633E1,3.119379915E-1,1.249909589E1,1.472832931E0,1.258943764E1
1.090564933E1,-7.206973958E-1,1.297971713E1,-3.260044555E-1,1.300379716E1
1.091570233E1,-1.755143958E0,1.281711776E1,-1.213960322E0,1.299356524E1
1.092575533E1,-2.899445962E0,1.236754874E1,-1.720433278E0,1.281885094E1
1.093580833E1,-4.228915690E0,1.202113629E1,-2.203562980E0,1.293240641E1
1.094586133E1,-5.815362360E0,1.194555518E1,-2.821279213E0,1.358213328E1
1.095591433E1,-7.145875817E0,1.197009244E1,-3.767314267E0,1.444089024E1
1.096596733E1,-7.174956359E0,1.164536264E1,-4.230407900E0,1.431750051E1
1.097602033E1,-6.393657251E0,1.141433798E1,-3.667453179E0,1.358735358E1
1.098607333E1,-5.317817518E0,1.113688058E1,-2.672378697E0,1.262738691E1
1.099612633E1,-4.519671704E0,1.097810997E1,-1.834388494E0,1.201296433E1
1.100618033E1,-3.860254883E0,1.095953336E1,-1.085228022E0,1.167007537E1
1.101623333E1,-3.340005594E0,1.094877215E1,-9.193341454E-2,1.144725734E1
1.102628633E1,-2.785168856E0,1.099048969E1,1.509342946E0,1.143792574E1
1.103633933E1,-2.275477593E0,1.061983118E1,3.026208919E0,1.127459769E1
1.104639233E1,-2.273579148E0,9.743449915E0,2.777333879E0,1.038352358E1
1.105644533E1,-2.178764938E0,9.074198077E0,1.604643205E0,9.469053132E0
1.106649833E1,-1.713739532E0,8.678230480E0,7.039837146E-1,8.873791778E0
1.107655133E1,-1.113815498E0,8.394144677E0,-6.509003520E-2,8.467968265E0
1.108660433E1,-3.886783116E-1,8.071749086E0,-4.241646248E-1,8.092225885E0
1.109665733E1,2.954651790E-1,7.719021065E0,-6.818338770E-1,7.754707171E0
1.110671033E1,7.377296772E-1,7.319003686E0,-7.251354325E-1,7.391744140E0
1.111676333E1,9.041064975E-1,6.443375541E0,-6.206702471E-1,6.536033084E0
1.112681633E1,9.052087708E-1,5.005632336E0,-2.869638026E-1,5.094909834E0
1.113686933E1,1.154983624E0,2.519085753E0,1.114029433E-1,2.773479911E0
1.114692233E1,8.683912658E-1,-2.569348419E0,-7.280894458E-1,2.808161129E0
1.115697633E1,3.832952186E-2,-1.250953083E1,-3.907764387E-1,1.251569163E1
1.116702933E1,1.864076270E-1,-2.744310443E1,7.482892370E-1,2.745393715E1
1.117708233E1,2.211483179E0,-3.890377107E1,2.781994293E-1,3.896756929E1
1.118713533E1,4.963859242E0,-4.046117462E1,-5.357938188E-1,4.076804662E1
1.119718833E1,7.280193962E0,-3.446489005E1,-2.941619005E0,3.534802671E1
1.120724133E1,7.667368516E0,-2.228234955E1,-5.427095547E0,2.418150135E1
1.121729433E1,6.803820133E0,-1.523780657E1,-4.844112359E0,1.737665509E1
1.122734733E1,4.422998226E0,-1.322203511E1,-3.664717852E0,1.441579975E1
1.123740033E1,1.012604873E0,-1.472648627E1,-3.753746388E0,1.523106623E1
1.124745333E1,-1.285093747E0,-1.681418316E1,-3.168930098E0,1.715838977E1
1.125750633E1,-2.807253497E0,-1.672410213E1,-2.599231199E0,1.715611457E1
1.126755933E1,-4.015983193E0,-1.528390719E1,-1.696849118E0,1.589355960E1
1.127761233E1,-4.595982547E0,-1.308123064E1,-5.187696505E-1,1.387482514E1
1.128766533E1,-4.765728094E0,-1.060502486E1,8.792551732E-1,1.165983732E1
1.129771933E1,-4.491869948E0,-8.097751070E0,2.965449332E0,9.723392297E0
1.130777233E1,-3.612930817E0,-5.387184792E0,6.204026785E0,8.975799542E0
1.131782533E1,-2.199864908E0,-2.400970243E0,9.895642998E0,1.041766836E1
1.132787833E1,-1.253832924E0,1.693967611E-1,1.035754848E1,1.043453893E1
1.133793133E1,-1.005603856E0,2.170774133E0,7.566955451E0,7.936139757E0
1.134798433E1,-7.480302054E-1,4.070559642E0,4.661773371E0,6.233870061E0
1.135803733E1,-2.703041350E-1,6.282237972E0,2.687037667E0,6.838110096E0
1.136809033E1,3.018909036E-1,8.548208869E0,1.407956904E0,8.668642087E0
1.137814333E1,5.028768087E-1,1.048885589E1,5.777318037E-1,1.051678454E1
1.138819633E1,7.803273741E-2,1.194797593E1,1.360292595E-2,1.194823849E1
1.139824933E1,-7.032209453E-1,1.289394667E1,-4.125421143E-1,1.291969703E1
1.140830233E1,-1.453797321E0,1.340184049E1,-7.009443319E-1,1.349867320E1
1.141835533E1,-2.238596865E0,1.335427690E1,-1.318859371E0,1.360468366E1
1.142840833E1,-2.969816033E0,1.316796239E1,-2.229179631E0,1.368153071E1
1.143846133E1,-3.659131130E0,1.295158150E1,-2.943634540E0,1.377670818E1
1.144851533E1,-4.398765610E0,1.292924397E1,-3.206326550E0,1.402836478E1
1.145856833E1,-4.576433550E0,1.284258005E1,-3.280206120E0,1.402267301E1
1.146862133E1,-4.390366085E0,1.265468679E1,-2.917638988E0,1.370872092E1
1.147867433E1,-3.930563558E0,1.243830472E1,-2.295442618E0,1.324499193E1
1.148872733E1,-3.353390456E0,1.210417611E1,-1.591270623E0,1.266050746E1
1.149878033E1,-2.880348955E0,1.180161895E1,-8.589080322E-1,1.217835551E1
1.150883333E1,-2.409577344E0,1.167788719E1,2.902628016E-1,1.192742071E1
1.151888633E1,-1.965527801E0,1.186379941E1,2.008025072E0,1.219201381E1
1.152893933E1,-1.720976192E0,1.181659601E1,3.259553754E0,1.237814166E1
1.153899233E1,-2.079465183E0,1.043361374E1,3.040002501E0,1.106463222E1
1.154904533E1,-2.163163397E0,8.975381886E0,2.498932739E0,9.564592031E0
1.155909833E1,-1.796155744E0,7.951100562E0,2.315672815E0,8.473990571E0
1.156915133E1,-1.253277000E0,7.210041407E0,2.368924577E0,7.692022100E0
1.157920433E1,-4.757137876E-1,6.774198723E0,2.454173473E0,7.220736762E0
1.158925733E1,3.827904212E-1,6.761673403E0,2.500719649E0,7.219442809E0
1.159931033E1,1.212787078E0,6.526301923E0,3.901183931E0,7.699526307E0
1.160936433E1,2.297329222E0,5.299146189E0,7.524545596E0,9.485644855E0
1.161941733E1,2.871120295E0,3.863389283E0,8.077249562E0,9.402716043E0
1.162947033E1,1.984011142E0,2.842189441E0,4.012909019E0,5.302620091E0
1.163952333E1,7.239729329E-1,2.471798151E0,-1.122253177E0,2.809515100E0
1.164957633E1,8.023862144E-1,1.005568480E0,-4.462333615E0,4.644072878E0
1.165962933E1,2.419712323E-1,-6.215470371E0,-4.083973154E0,7.441065699E0
1.166968233E1,-1.086966253E0,-1.737019490E1,-2.978128434E0,1.765713497E1
1.167973533E1,-1.660380765E0,-2.986869086E1,-2.124702167E0,2.999016368E1
1.168978833E1,-1.126385989E0,-3.798300534E1,-2.672844136E0,3.809358917E1
1.169984133E1,1.849068660E0,-3.417872264E1,-3.129564888E0,3.437147527E1
1.170989433E1,2.488851555E0,-2.749734788E1,-5.960497854E0,2.824581486E1
1.171994733E1,2.088895134E0,-2.042402022E1,-8.299103449E0,2.214450728E1
1.173000033E1,2.602008042E0,-1.628672221E1,-8.220260178E0,1.842825124E1
1.174005333E1,2.839443296E0,-1.641379624E1,-7.094986330E0,1.810563383E1
1.175010733E1,1.804051678E0,-1.776087778E1,-5.241467500E0,1.860581532E1
1.176016033E1,6.736356421E-1,-1.671210013E1,-3.013312300E0,1.699494416E1
1.177021333E1,-6.561328791E-2,-1.492781058E1,-9.124474776E-1,1.495581473E1
1.178026633E1,-5.353772778E-1,-1.315326249E1,7.713658583E-1,1.318673380E1
1.179031933E1,-4.906366129E-1,-1.135527175E1,2.371947588E0,1.161073021E1
1.180037233E1,1.707639132E-2,-9.385925422E0,4.233564227E0,1.029655057E1
1.181042533E1,1.019624894E0,-6.891031355E0,7.553855349E0,1.027553788E1
1.182047833E1,2.235788739E0,-3.918886961E0,1.210367676E1,1.291725270E1
1.183053133E1,1.793572883E0,-1.539442073E0,1.133511172E1,1.157892669E1
1.184058433E1,5.008556455E-1,9.911556780E-2,6.630484103E0,6.650112759E0
1.185063733E1,7.764006947E-2,1.951977171E0,3.024445399E0,3.600487860E0
1.186069033E1,4.471190028E-1,4.295651717E0,7.554158235E-1,4.384426090E0
1.187074333E1,8.151617228E-1,6.787384779E0,-3.740019464E-1,6.846382858E0
1.188079633E1,9.442803043E-1,9.149079859E0,-8.314389825E-1,9.235183720E0
1.189084933E1,3.648726521E-1,1.101445158E1,-8.399770868E-1,1.105245842E1
1.190090233E1,-6.649139352E-1,1.230321065E1,-5.053923905E-1,1.233152563E1
1.191095633E1,-1.630251233E0,1.311170750E1,4.209749687E-1,1.321937263E1
1.192100933E1,-2.910846570E0,1.332301652E1,2.096429125E0,1.379749296E1
1.193106233E1,-4.786734801E0,1.344498008E1,2.911873634E0,1.456569008E1
1.194111533E1,-7.099377004E0,1.394433464E1,1.862673815E0,1.575801942E1
1.195116833E1,-9.274326634E0,1.464719803E1,-1.709386718E-1,1.733732288E1
1.196122133E1,-1.042524286E1,1.487266783E1,-1.687451473E0,1.824087250E1
1.197127433E1,-1.000494032E1,1.424505460E1,-2.431033702E0,1.757641420E1
1.198132733E1,-8.232365084E0,1.272204203E1,-2.166760604E0,1.530741781E1
1.199138033E1,-6.750982938E0,1.112333609E1,-1.734367193E0,1.312678201E1
1.200143333E1,-5.625104488E0,1.011411953E1,-1.496432294E0,1.166946974E1
1.201148633E1,-4.167171139E0,9.852111647E0,-1.051481402E0,1.074872236E1
1.202153933E1,-2.780849810E0,9.897177308E0,-5.316662328E-1,1.029416890E1
1.203159233E1,-1.651714315E0,9.998883777E0,4.202514488E-2,1.013447596E1
1.204164533E1,-6.572476508E-1,1.014342461E1,7.645947826E-1,1.019341172E1
1.205169833E1,2.363340961E-1,1.014917476E1,1.515121164E0,1.026436526E1
1.206175133E1,1.017000079E0,9.920490156E0,2.011609415E0,1.017334687E1
1.207180533E1,1.557116890E0,9.487003900E0,2.129663529E0,9.846995621E0
1.208185833E1,1.973277408E0,9.107187483E0,2.106279345E0,9.553590961E0
1.209191133E1,2.391425979E0,8.746261665E0,1.933676555E0,9.271198215E0
1.210196433E1,2.725024396E0,8.392690474E0,1.555670435E0,8.960084925E0
1.211201733E1,3.413596312E0,7.933305731E0,2.187201301E0,8.909199130E0
1.212207033E1,4.483211684E0,6.890123867E0,4.758851184E0,9.498402944E0
1.213212333E1,5.371054662E0,4.678408114E0,8.485844806E0,1.107904747E1
1.214217633E1,4.120908554E0,2.353066928E0,7.882476470E0,9.200665551E0
1.215222933E1,1.499341283E0,2.595631068E0,-1.374608479E0,3.297707294E0
1.216228233E1,9.360406273E-1,1.993374288E-1,-4.824804268E0,4.918805108E0
1.217233533E1,-1.162096762E0,-9.259220937E0,-3.758212491E0,1.006020886E1
1.218238833E1,-3.222767166E0,-2.181944186E1,-3.304105445E0,2.230227307E1
1.219244133E1,-5.292072228E0,-3.587268440E1,-4.534036267E-1,3.626377103E1
1.220249433E1,-3.905502099E0,-3.787773441E1,-2.109061450E0,3.813690930E1
1.221254733E1,-1.875054418E-1,-2.734414849E1,-4.233295255E0,2.767053313E1
1.222260133E1,9.788281395E-1,-1.786264156E1,-5.516722838E0,1.872074514E1
1.223265433E1,2.218743375E0,-1.327076463E1,-5.188591713E0,1.442073160E1
1.224270733E1,3.978772389E0,-1.347380452E1,-2.672169952E0,1.430085767E1
1.225276033E1,4.046106586E0,-1.858219407E1,8.603012044E-2,1.901778946E1
1.226281333E1,1.325726780E0,-2.028368237E1,4.734870583E-1,2.033247432E1
1.227286633E1,-6.273265712E-1,-1.601657500E1,-7.722084421E-1,1.604744588E1
1.228291933E1,-1.950760073E0,-1.301031210E1,-2.546303957E0,1.339990111E1
1.229297233E1,-3.390919055E0,-1.198791475E1,-3.798958229E0,1.302461192E1
1.230302533E1,-4.585945801E0,-1.177965798E1,-4.185031167E0,1.331561966E1
1.231307833E1,-5.559049078E0,-1.238280763E1,-3.979655904E0,1.414477333E1
1.232313133E1,-6.311372893E0,-1.268276746E1,-2.926035590E0,1.446539672E1
1.233318433E1,-6.458115787E0,-1.111667728E1,-1.178244359E0,1.291030724E1
1.234323733E1,-6.191525438E0,-8.379174635E0,9.521231747E-1,1.046193545E1
1.235329033E1,-6.053964427E0,-5.294884154E0,4.016400976E0,8.989869870E0
1.236334333E1,-5.430093414E0,-1.890580237E0,7.775103464E0,9.670183142E0
1.237339633E1,-3.947822200E0,1.283167967E0,9.544735215E0,1.040835196E1
1.238345033E1,-2.394094794E0,3.885750205E0,8.320580857E0,9.490142798E0
1.239350333E1,-1.112288059E0,6.189502301E0,6.808787928E0,9.268587622E0
1.240355633E1,-6.788018033E-2,8.308606344E0,6.107736007E0,1.031222509E1
1.241360933E1,5.670634856E-1,1.012718455E1,6.258463193E0,1.191846423E1
1.242366233E1,8.565891726E-1,1.171988073E1,5.594943380E0,1.301509665E1
1.243371533E1,7.977900106E-1,1.310535626E1,4.431113577E0,1.385718583E1
1.244376833E1,4.606588153E-1,1.387016855E1,3.632306736E0,1.434529311E1
1.245382133E1,1.679904692E-1,1.405674970E1,2.882689011E0,1.435027278E1
1.246387433E1,-8.503467766E-2,1.373081537E1,1.101257579E0,1.377516933E1
1.247392733E1,-3.219615810E-1,1.312505202E1,-9.436657619E-1,1.316287031E1
1.248398033E1,-3.276611179E-1,1.243007418E1,-2.046622542E0,1.260169710E1
1.249403333E1,-1.663498318E-1,1.185005963E1,-2.591681274E0,1.213129825E1
1.250408633E1,-1.039802502E-1,1.129537638E1,-3.081775010E0,1.170870089E1
1.251413933E1,-1.272084606E-1,1.072010859E1,-3.179748616E0,1.118247341E1
1.252419233E1,-8.155194811E-2,1.017336235E1,-2.760188674E0,1.054147019E1
1.253424533E1,6.039288464E-2,9.897815824E0,-2.226507454E0,1.014533099E1
1.254429833E1,2.753863887E-1,9.880318615E0,-1.772093428E0,1.004175526E1
1.255435233E1,4.987569702E-1,9.843360704E0,-1.449583232E0,9.962017869E0
1.256440533E1,5.607486389E-1,9.724547621E0,-1.138938206E0,9.807061013E0
1.257445833E1,5.882384462E-1,9.613287971E0,-8.923196071E-1,9.672515927E0
1.258451133E1,6.447922774E-1,9.597984638E0,-9.790414166E-1,9.669311676E0
1.259456433E1,6.815377886E-1,9.565697483E0,-1.113812136E0,9.654410369E0
1.260461733E1,6.132510075E-1,9.429883620E0,-1.077443039E0,9.511028619E0
1.261467063E1,3.225041295E-1,9.148024437E0,-9.681597483E-1,9.204764707E0
1.262472363E1,-5.481519822E-2,8.963647694E0,-5.592885160E-1,8.981246480E0
1.263477663E1,-1.151394822E0,8.892051462E0,2.423833441E0,9.288124557E0
1.264482963E1,-3.222901652E0,8.643850021E0,8.690951682E0,1.267422106E1
1.265488263E1,-4.079542134E0,7.711616735E0,1.019022572E1,1.341463369E1
1.266493563E1,-2.798130087E0,6.676489411E0,8.060625343E0,1.083414619E1
1.267498862E1,-5.445772869E-1,6.169979618E0,4.192554195E0,7.479486853E0
1.268504163E1,-6.336079426E-2,5.346877010E0,1.019466142E0,5.443566806E0
1.269509462E1,-6.458694077E-1,4.501214091E0,-1.395456142E0,4.756613652E0
1.270514763E1,-5.466276862E-1,3.999353419E0,-3.673864651E0,5.458105081E0
1.271520063E1,-1.611440009E-1,2.356657704E0,-4.958031322E0,5.491983022E0
1.272525463E1,-5.152668759E-1,-3.596966164E0,-4.276305619E0,5.611635705E0
1.273530763E1,-1.199825117E0,-1.589215912E1,-3.359537049E0,1.628762693E1
1.274536063E1,-2.373879362E0,-3.211753000E1,-2.791378307E0,3.232588482E1
1.275541363E1,-3.017731626E0,-4.261206120E1,-4.426055735E0,4.294746131E1
1.276546662E1,-2.404738627E0,-3.969744405E1,-6.440908601E0,4.028839952E1
1.277551963E1,-2.082656740E0,-3.067656089E1,-7.837335965E0,3.173031172E1
1.278557262E1,1.059671889E0,-2.040139383E1,-6.400691451E0,2.140814392E1
1.279562563E1,3.822106771E0,-1.526190060E1,-2.472110392E0,1.592625003E1
1.280567863E1,5.133779329E0,-1.414545781E1,2.881648024E-1,1.505100348E1
1.281573163E1,5.194310875E0,-1.623236299E1,2.120001590E0,1.717454163E1
1.282578463E1,4.097899468E0,-1.881399173E1,3.522203665E0,1.957460047E1
1.283583763E1,2.365130027E0,-1.858506856E1,4.365411923E0,1.923682496E1
1.284589063E1,8.495843545E-2,-1.669426613E1,4.071785803E0,1.718386392E1
1.285594363E1,-1.567877960E0,-1.458366920E1,3.149253048E0,1.500198131E1
1.286599663E1,-2.130605954E0,-1.213680942E1,2.378627447E0,1.254988021E1
1.287605062E1,-2.270458343E0,-9.687380964E0,2.062356230E0,1.016138004E1
1.288610363E1,-2.491282243E0,-7.430023016E0,2.268056599E0,8.158174426E0
1.289615663E1,-2.822483155E0,-5.133677588E0,2.765942334E0,6.478541018E0
1.290620963E1,-3.035699827E0,-2.637055668E0,3.379279003E0,5.252529164E0
1.291626263E1,-3.088676771E0,-7.293349028E-2,3.979997381E0,5.038414695E0
1.292631563E1,-2.922622863E0,2.487893781E0,4.459679564E0,5.883883214E0
1.293636863E1,-2.619623071E0,5.066405371E0,4.711896873E0,7.398166027E0
1.294642163E1,-2.294416432E0,7.618358908E0,4.859723840E0,9.323124745E0
1.295647463E1,-2.097486009E0,9.821402071E0,5.080625800E0,1.125487204E1
1.296652762E1,-2.287269380E0,1.163973060E1,5.393152460E0,1.303077216E1
1.297658063E1,-2.851190353E0,1.285499368E1,4.822084143E0,1.402257624E1
1.298663362E1,-3.327420632E0,1.347394485E1,3.311894521E0,1.426841138E1
1.299668663E1,-3.869875307E0,1.364913913E1,1.585299447E0,1.427543723E1
1.300673963E1,-4.237191839E0,1.367016104E1,-2.694864750E-1,1.431431872E1
1.301679263E1,-4.304751446E0,1.342378276E1,-1.943453100E0,1.423045461E1
1.302684563E1,-3.856774912E0,1.303195265E1,-2.943204185E0,1.390571657E1
1.303689863E1,-3.105373787E0,1.248869954E1,-3.279869320E0,1.328038046E1
1.304695263E1,-2.371458614E0,1.214538729E1,-2.987537774E0,1.273026434E1
1.305700563E1,-1.744547780E0,1.184326399E1,-2.460797199E0,1.222136947E1
1.306705863E1,-1.364842752E0,1.148382980E1,-2.049044459E0,1.174477440E1
1.307711162E1,-1.011670853E0,1.121821769E1,-1.706098244E0,1.139221915E1
1.308716463E1,-7.613761827E-1,1.102658455E1,-1.455277836E0,1.114823278E1
1.309721763E1,-7.426585145E-1,1.082026321E1,-1.267151858E0,1.091949227E1
1.310727063E1,-6.810064960E-1,1.075774595E1,-1.127756576E0,1.083811343E1
1.311732363E1,-6.334634433E-1,1.068639238E1,-1.161107925E0,1.076793525E1
1.312737663E1,-4.194038584E-1,1.048428220E1,-1.174881626E0,1.055823942E1
1.313742963E1,-4.101781581E-1,9.987198701E0,-1.133924804E0,1.005973009E1
1.314748263E1,-8.700650313E-1,9.337476563E0,-1.247274833E0,9.460506130E0
1.315753563E1,-1.205008527E0,9.007481346E0,-1.302992951E0,9.180662088E0
1.316758862E1,-1.600241714E0,8.670489936E0,-8.914121193E-1,8.861872536E0
1.317764163E1,-2.498583661E0,8.178225714E0,5.485056657E-1,8.568964617E0
1.318769462E1,-3.852742380E0,7.351817676E0,3.177968724E0,8.887763059E0
1.319774763E1,-4.836622660E0,6.255308036E0,7.129295452E0,1.064653235E1
1.320780063E1,-4.470910019E0,5.615485234E0,7.668754306E0,1.050392800E1
1.321785363E1,-2.987783649E0,5.643156597E0,2.954716768E0,7.035795526E0
1.322790763E1,-1.331116304E0,5.770708344E0,-8.042102534E-1,5.976595983E0
1.323796063E1,-1.795443846E-1,5.805282930E0,-1.257733748E0,5.942679553E0
1.324801363E1,5.309943511E-1,4.772851757E0,-6.354391444E-1,4.844156459E0
1.325806663E1,5.375189667E-1,2.607628385E0,-1.464964918E0,3.038877202E0
1.326811963E1,4.490815111E-1,-1.900558510E0,-2.168460390E0,2.918221602E0
1.327817262E1,-2.356400134E-1,-1.254621860E1,-7.471303189E-1,1.257065356E1
1.328822563E1,-2.584271975E-1,-2.599098584E1,5.755285728E-1,2.599864156E1
1.329827863E1,1.296592150E0,-3.489432360E1,3.429620022E-1,3.492008868E1
1.330833163E1,4.006072454E0,-3.641030547E1,-6.231494665E-1,3.663532826E1
1.331838463E1,6.006396158E0,-3.478395390E1,-3.200510910E0,3.544352569E1
1.332843763E1,6.316302681E0,-2.819249762E1,-6.598854175E0,2.963540919E1
1.333849063E1,5.634419687E0,-2.023015228E1,-7.017215438E0,2.214152341E1
1.334854363E1,4.428737853E0,-1.710713101E1,-7.266722562E0,1.910688114E1
1.335859663E1,2.272392455E0,-1.778546883E1,-8.003415601E0,1.963520640E1
1.336864962E1,2.419807340E-1,-1.940372553E1,-6.457525218E0,2.045147307E1
1.337870263E1,-1.709852010E0,-1.934269463E1,-3.819152758E0,1.979013282E1
1.338875663E1,-2.909249696E0,-1.779603124E1,-5.936970413E-1,1.804203254E1
1.339880963E1,-3.489425928E0,-1.524575060E1,3.026365625E0,1.593009396E1
1.340886263E1,-3.905413222E0,-1.248872176E1,9.006122453E0,1.588491943E1
1.341891563E1,-3.288529047E0,-9.269048937E0,1.847619574E1,2.093082656E1
1.342896863E1,-2.864261511E0,-6.416236274E0,1.570352560E1,1.720385998E1
1.343902163E1,-3.443980199E0,-4.153272600E0,6.038279271E0,8.097622457E0
1.344907463E1,-2.993431767E0,-2.183754367E0,1.315382617E0,3.931875928E0
1.345912763E1,-1.684079238E0,3.524643123E-2,-4.183425522E-1,1.735619682E0
1.346918063E1,-5.104906509E-1,2.608775024E0,-1.152652266E0,2.897397984E0
1.347923362E1,2.431235723E-2,5.251805962E0,-1.565387338E0,5.480191098E0
1.348928663E1,2.102590044E-1,7.765954326E0,-1.726261783E0,7.958280919E0
1.349933963E1,7.063078366E-2,9.826654040E0,-1.896855469E0,1.000830550E1
1.350939263E1,-2.136430439E-1,1.127406562E1,-1.809066542E0,1.142028549E1
1.351944563E1,-5.648234538E-1,1.208956509E1,-1.522588059E0,1.219815084E1
1.352949863E1,-8.286919606E-1,1.228380959E1,-7.325543797E-1,1.233350495E1
1.353955163E1,-1.603926337E0,1.243043905E1,2.399802554E-1,1.253578818E1
1.354960463E1,-2.960555505E0,1.268564312E1,6.256661081E-1,1.304154470E1
1.355965863E1,-4.875632359E0,1.327544591E1,3.926241954E-1,1.414791182E1
1.356971162E1,-6.400607836E0,1.374763430E1,-5.209857452E-1,1.517355119E1
1.357976463E1,-7.091234756E0,1.387765767E1,-1.473798891E0,1.565397955E1
1.358981763E1,-7.190957850E0,1.387867742E1,-1.794621581E0,1.573366545E1
1.359987063E1,-6.680511711E0,1.375205480E1,-1.421763350E0,1.535479270E1
1.360992363E1,-5.708766450E0,1.339906775E1,-6.824893498E-1,1.458049459E1
1.361997663E1,-4.541891416E0,1.293890591E1,2.299744999E-1,1.371484422E1
1.363002963E1,-3.244990679E0,1.252298644E1,1.055346411E0,1.297955739E1
1.364008263E1,-2.192529284E0,1.218017354E1,1.823352460E0,1.250953342E1
1.365013563E1,-1.451186977E0,1.193159905E1,2.466638567E0,1.227001652E1
1.366018863E1,-7.595202765E-1,1.168991024E1,2.868131783E0,1.206055771E1
1.367024163E1,-5.383593578E-1,1.058933094E1,3.018126898E0,1.102419387E1
1.368029462E1,-1.228137627E0,8.967245486E0,2.739045142E0,9.456330257E0
1.369034763E1,-1.549962968E0,7.995845211E0,2.171872240E0,8.429291480E0
1.370040063E1,-1.456434269E0,7.562699262E0,1.386401728E0,7.825454023E0
1.371045363E1,-1.053108974E0,7.394712850E0,5.732727170E-1,7.491292162E0
1.372050663E1,-4.694002931E-1,7.298314483E0,1.419458377E-1,7.314771326E0
1.373055963E1,5.327401835E-2,6.989403741E0,7.753302705E-1,7.032477502E0
1.374061263E1,4.493186156E-1,6.545401268E0,1.842595646E0,6.814640394E0
1.375066663E1,8.932188358E-1,5.997169837E0,3.782322900E0,7.146317406E0
1.376071963E1,1.345881255E0,4.868391752E0,7.552826239E0,9.086133325E0
1.377077262E1,1.335370154E0,3.474386889E0,9.642225841E0,1.033571947E1
1.378082563E1,9.671791703E-1,3.298031357E0,3.697762806E0,5.048355787E0
1.379087863E1,9.850867067E-1,3.861282531E0,-3.634870740E0,5.393717076E0
1.380093163E1,1.488595563E0,2.686651751E0,-3.618555838E0,4.746362896E0
1.381098463E1,2.077172197E0,-2.452605250E0,-2.335125332E0,3.972748062E0
1.382103763E1,4.047439751E-1,-1.345001103E1,-1.513633633E0,1.354096382E1
1.383109063E1,4.677173182E-2,-2.417089496E1,-1.021701533E0,2.419252415E1
1.384114363E1,1.854076947E0,-3.416296322E1,-1.742132880E0,3.425756390E1
1.385119663E1,4.143867939E0,-3.817898296E1,-2.625589862E0,3.849285782E1
1.386124963E1,5.715591320E0,-3.575054776E1,-5.159691850E0,3.657037147E1
1.387130263E1,6.162504537E0,-2.827066086E1,-7.374717711E0,2.985955775E1
1.388135562E1,5.465631037E0,-2.000742014E1,-8.076625080E0,2.225762467E1
1.389140863E1,4.365795500E0,-1.541668108E1,-8.363866625E0,1.807452602E1
1.390146163E1,2.662284941E0,-1.522884162E1,-6.956985024E0,1.695302388E1
1.391151463E1,-7.132069664E-1,-1.723173049E1,-5.608128267E0,1.813538813E1
1.392156863E1,-3.542516892E0,-1.744947613E1,-3.646759883E0,1.817505160E1
1.393162163E1,-5.279568542E0,-1.732247460E1,-6.921021724E-1,1.812238880E1
1.394167463E1,-6.663554785E0,-1.608914596E1,2.960258174E0,1.766427776E1
1.395172763E1,-6.930176125E0,-1.334431910E1,8.675047256E0,1.735956907E1
1.396178063E1,-6.052118461E0,-9.978989210E0,1.341660004E1,1.778239354E1
1.397183362E1,-5.501741686E0,-6.408424979E0,1.008404964E1,1.315390168E1
1.398188663E1,-5.342310335E0,-3.714018066E0,4.614643643E0,7.976787941E0
1.399193963E1,-4.650169279E0,-1.639658672E0,2.081740919E0,5.352214508E0
1.400199263E1,-3.327194053E0,3.357079464E-1,1.965343906E0,3.878852505E0
1.401204563E1,-2.068885377E0,2.164266767E0,2.534149350E0,3.922531105E0
1.402209863E1,-1.243949376E0,4.022232404E0,2.715249313E0,5.009824587E0
1.403215163E1,-7.351926434E-1,5.885759329E0,2.551009212E0,6.456804093E0
1.404220463E1,-4.087953646E-1,7.677363746E0,2.183950249E0,7.992413054E0
1.405225763E1,-3.634706360E-1,9.370163083E0,1.883912072E0,9.564580064E0
1.406231063E1,-6.090986073E-1,1.070208046E1,1.589605336E0,1.083662181E1
1.407236363E1,-9.593440475E-1,1.169510490E1,1.156591024E0,1.179124771E1
1.408241662E1,-1.010333303E0,1.226896702E1,8.069964516E-1,1.233691892E1
1.409246963E1,-1.273508074E0,1.242016549E1,5.993371924E-1,1.249966155E1
1.410252363E1,-1.833566961E0,1.254407150E1,3.696843990E-1,1.268275854E1
1.411257663E1,-2.575962204E0,1.264932255E1,-1.649313156E-1,1.291000173E1
1.412262963E1,-3.447879707E0,1.275839534E1,-8.023759818E-1,1.324040533E1
1.413268263E1,-4.236265056E0,1.273542748E1,-1.253410317E0,1.347991440E1
1.414273563E1,-4.703316961E0,1.256927183E1,-1.581152601E0,1.351324640E1
1.415278863E1,-4.706783775E0,1.230079225E1,-1.666173456E0,1.327552023E1
1.416284163E1,-4.464191276E0,1.204975491E1,-1.451121050E0,1.293179606E1
1.417289462E1,-4.112931490E0,1.178806394E1,-1.061045035E0,1.252998298E1
1.418294763E1,-3.727157052E0,1.164248230E1,-6.723970556E-1,1.224300664E1
1.419300063E1,-3.252435354E0,1.141158628E1,-3.253612983E-1,1.187048850E1
1.420305363E1,-2.473798191E0,1.119294602E1,3.359716558E-1,1.146798130E1
1.421310663E1,-1.397595930E0,1.109058584E1,1.527285712E0,1.128215273E1
1.422315963E1,-3.764725412E-1,1.064537533E1,2.655976088E0,1.097815815E1
1.423321263E1,1.597170793E-1,9.791540340E0,2.962687107E0,1.023119185E1
1.424326563E1,2.762345273E-1,9.036784083E0,2.597537845E0,9.406751561E0
1.425331863E1,3.602923454E-1,8.611433643E0,2.350592387E0,8.933749746E0
1.426337163E1,4.070144489E-1,8.319566365E0,2.316258706E0,8.645571101E0
1.427342463E1,5.164774688E-1,8.026982803E0,2.483059888E0,8.418122612E0
1.428347762E1,6.841178725E-1,7.714206467E0,2.717760108E0,8.207509896E0
1.429353063E1,9.245080177E-1,7.409176522E0,2.953835592E0,8.029679727E0
1.430358463E1,1.204841516E0,6.832432898E0,3.679444649E0,7.853158302E0
1.431363763E1,1.321414019E0,5.541695126E0,4.927087272E0,7.532111847E0
1.432369063E1,7.641772183E-1,4.511957181E0,3.225869114E0,5.598924536E0
1.433374363E1,2.879513973E-1,4.063324297E0,-1.354827933E0,4.292910327E0
1.434379663E1,-5.667840618E-1,-1.681070992E0,-2.325294993E0,2.924763350E0
1.435384963E1,-3.323281388E0,-1.548309843E1,3.371796906E-1,1.583932532E1
1.436390263E1,-4.666794667E0,-3.250252004E1,3.480889578E0,3.301983303E1
1.437395562E1,-3.002515417E0,-4.023081303E1,6.600600153E-1,4.034809903E1
1.438400863E1,1.320164031E0,-3.655575847E1,-1.408552151E0,3.660669788E1
1.439406163E1,5.068220347E0,-2.876762039E1,-3.555248035E0,2.942622350E1
1.440411463E1,6.032585253E0,-2.037550236E1,-6.119428684E0,2.211335770E1
1.441416763E1,5.860720382E0,-1.467240070E1,-7.420373940E0,1.745535262E1
1.442422063E1,6.057709569E0,-1.370424796E1,-8.284072596E0,1.712098468E1
1.443427363E1,3.499134645E0,-1.774186732E1,-8.766757910E0,2.009661273E1
1.444432663E1,8.265691289E-1,-1.965274207E1,-9.007466728E0,2.163441574E1
1.445437963E1,-1.423729184E0,-1.902174798E1,-8.312399433E0,2.080744783E1
1.446443263E1,-3.394137070E0,-1.768457513E1,-5.801062995E0,1.891868642E1
1.447448563E1,-4.880624127E0,-1.604722260E1,-2.569271235E0,1.696864755E1
1.448453963E1,-6.178492579E0,-1.426604961E1,3.665702084E-1,1.555083007E1
1.449459263E1,-6.473148394E0,-1.188201934E1,3.616405817E0,1.400579968E1
1.450464563E1,-5.570851682E0,-9.182942255E0,1.167804273E1,1.586623770E1
1.451469863E1,-3.260026209E0,-6.450978675E0,2.183082288E1,2.299625458E1
1.452475163E1,-2.131070808E0,-3.427260670E0,1.762243677E1,1.807865747E1
1.453480463E1,-2.218366376E0,-2.821497899E-1,9.451625322E0,9.712568101E0
1.454485763E1,-1.491962390E0,1.974571981E0,5.276178911E0,5.827774033E0
1.455491063E1,-7.532686528E-2,4.270807482E0,3.432720215E0,5.479875798E0
1.456496363E1,8.122368725E-1,6.550620493E0,3.006618408E0,7.253282831E0
1.457501662E1,1.187491585E0,8.745223784E0,2.329602052E0,9.127766486E0
1.458506963E1,8.980014197E-1,1.049334655E1,1.106385587E0,1.058965615E1
1.459512263E1,-2.159419133E-1,1.162542714E1,-2.392322503E-2,1.162745714E1
1.460517563E1,-1.548191847E0,1.244584763E1,-1.225034875E0,1.260145752E1
1.461522858E1,-2.527028611E0,1.295601603E1,-1.992622336E0,1.334971044E1
1.462528158E1,-3.541871652E0,1.317236886E1,-2.362266937E0,1.384328217E1
1.463533458E1,-4.352910284E0,1.326154825E1,-2.596133344E0,1.419705597E1
1.464538758E1,-4.565380266E0,1.309758765E1,-2.590897747E0,1.411035968E1
1.465544058E1,-4.171271499E0,1.273446152E1,-2.275480224E0,1.359205012E1
1.466549458E1,-3.667813953E0,1.229831887E1,-1.942495326E0,1.297978407E1
1.467554758E1,-3.115174598E0,1.188438629E1,-1.598702434E0,1.238946326E1
1.468560058E1,-2.654167252E0,1.147337498E1,-1.052832109E0,1.182334101E1
1.469565358E1,-2.215174673E0,1.108459946E1,-4.220016667E-1,1.131165016E1
1.470570658E1,-1.831292394E0,1.075102516E1,2.863622703E-2,1.090591554E1
1.471575958E1,-1.538969472E0,1.055925754E1,3.201643661E-1,1.067561951E1
1.472581258E1,-1.318135339E0,1.041310521E1,6.223858932E-1,1.051463766E1
1.473586558E1,-1.163168483E0,1.058131557E1,1.346156512E0,1.072983399E1
1.474591858E1,-1.431207772E0,1.153783468E1,4.844163229E0,1.259507452E1
1.475597158E1,-2.732417323E0,1.133449308E1,4.919067231E0,1.265440873E1
1.476602458E1,-3.697784149E0,9.776123571E0,2.862499745E0,1.083697857E1
1.477607758E1,-3.969735810E0,8.571246314E0,2.696665692E0,9.823292301E0
1.478613058E1,-4.204505904E0,7.684773923E0,3.354441200E0,9.380079739E0
1.479618358E1,-4.103297910E0,7.007620742E0,4.347738129E0,9.211222993E0
1.480623658E1,-3.002861864E0,6.908416881E0,2.894617331E0,8.069833497E0
1.481628958E1,-1.546596726E0,7.347366191E0,7.740450525E-1,7.548171773E0
1.482634258E1,1.638493431E-1,7.991605394E0,1.837885129E-1,7.995397526E0
1.483639558E1,1.971269035E0,8.287536487E0,6.204211557E-1,8.541316353E0
1.484644858E1,3.783242960E0,7.728913384E0,3.124390687E0,9.154826408E0
1.485650158E1,6.653288244E0,5.167784396E0,1.134337032E1,1.412955379E1
1.486655458E1,5.718754079E0,2.815030294E0,9.346732121E0,1.131326412E1
1.487660858E1,1.231999567E0,3.776741733E0,-2.216240328E0,4.548991343E0
1.488666158E1,9.743661292E-1,4.656367620E0,-5.486023201E0,7.261377234E0
1.489671458E1,1.766025627E0,7.288589394E-1,-5.181871508E0,5.522850188E0
1.490676758E1,-3.117317310E-1,-1.417673690E1,-2.869549148E0,1.446759683E1
1.491682058E1,-3.334034710E0,-3.472878659E1,9.140180397E-1,3.490042742E1
1.492687358E1,-4.051656763E0,-4.712472239E1,-1.792830579E0,4.733254297E1
1.493692658E1,-4.200901680E0,-4.485851000E1,-6.935854940E0,4.558551939E1
1.494697958E1,-4.824906009E0,-3.716512722E1,-1.151342256E1,3.920567941E1
1.495703258E1,-1.803857112E0,-2.419797458E1,-1.167527466E1,2.692782785E1
1.496708558E1,9.497522749E-1,-1.551026577E1,-8.462765261E0,1.769431461E1
1.497713858E1,2.583658894E0,-1.183983752E1,-5.952347420E0,1.350138829E1
1.498719158E1,2.565713497E0,-1.171901300E1,-3.657263821E0,1.254167972E1
1.499724458E1,8.070648640E-1,-1.540181746E1,-2.036516215E0,1.555682272E1
1.500729758E1,-6.768754381E-1,-1.805965296E1,-2.290248390E-1,1.807378427E1
1.501735058E1,-1.213670812E0,-1.718737235E1,2.257654402E0,1.737745000E1
1.502740358E1,-7.951245573E-1,-1.447759486E1,4.956173662E0,1.532307519E1
1.503745658E1,7.874113490E-1,-1.184016380E1,1.191285171E1,1.681444412E1
1.504750958E1,4.751623733E0,-9.176592763E0,2.502870722E1,2.707810865E1
1.505756258E1,4.024622161E0,-6.222681742E0,2.006976783E1,2.139427335E1
1.506761658E1,1.023741115E-1,-3.722683055E0,5.910284890E0,6.985722372E0
1.507766958E1,-5.217264047E-1,-1.849144528E0,7.928403425E-1,2.078492178E0
1.508772258E1,-6.185575750E-2,-8.848123670E-2,-2.315650157E-1,2.554944627E-1
1.509777558E1,5.174695951E-1,2.220335718E0,-4.713147446E-1,2.328047051E0
1.510782858E1,7.728975365E-1,4.989492851E0,-5.968533683E-1,5.084156120E0
1.511788158E1,4.979309413E-1,7.551879575E0,-9.820503207E-1,7.631726093E0
1.512793458E1,-3.326953513E-1,9.664592611E0,-1.801603156E0,9.836707298E0
1.513798758E1,-1.351102672E0,1.098120548E1,-2.424407637E0,1.132652218E1
1.514804058E1,-2.103025808E0,1.148097051E1,-2.496416098E0,1.193597481E1
1.515809358E1,-3.140120866E0,1.166805802E1,-2.517324572E0,1.234264397E1
1.516814658E1,-4.620699604E0,1.207674916E1,-2.415021687E0,1.315412729E1
1.517819958E1,-6.103490928E0,1.259818163E1,-2.078952967E0,1.415234353E1
1.518825258E1,-7.687342020E0,1.328428222E1,-1.813283554E0,1.545494674E1
1.519830558E1,-8.671419643E0,1.382934797E1,-1.873557823E0,1.643029528E1
1.520835858E1,-8.709103194E0,1.408812235E1,-1.683877655E0,1.664809640E1
1.521841158E1,-7.936914048E0,1.385492252E1,-1.106033585E0,1.600552383E1
1.522846458E1,-6.971835197E0,1.346919691E1,-4.743249643E-1,1.517401514E1
1.523851758E1,-6.057106136E0,1.300842462E1,2.755571274E-1,1.435212798E1
1.524857058E1,-4.871498670E0,1.241983337E1,1.283841566E0,1.340268665E1
1.525862358E1,-3.628910965E0,1.180405257E1,2.478225410E0,1.259548542E1
1.526867758E1,-2.433800604E0,1.140570398E1,3.847952049E0,1.228088774E1
1.527873058E1,-1.380975951E0,1.116251010E1,4.818400397E0,1.223624569E1
1.528878358E1,-7.033418365E-1,1.093877224E1,4.826128078E0,1.197676668E1
1.529883658E1,-3.877819334E-1,1.065308196E1,4.366720530E0,1.151984280E1
1.530888958E1,-2.864724903E-1,1.016362674E1,4.027546939E0,1.093629322E1
1.531894258E1,-5.485672076E-1,9.291225672E0,3.451067609E0,9.926614131E0
1.532899558E1,-1.152468006E0,8.421893808E0,2.476710981E0,8.853845216E0
1.533904858E1,-1.454691360E0,7.917728164E0,1.225381104E0,8.142978882E0
1.534910158E1,-1.270472638E0,7.640141541E0,-4.160706896E-2,7.745165888E0
1.535915458E1,-9.719935483E-1,7.254948024E0,-9.831350523E-1,7.385499090E0
1.536920758E1,-6.474392389E-1,6.671292990E0,-9.593982804E-1,6.770950657E0
1.537926058E1,-3.399823342E-1,6.143462495E0,8.049686372E-2,6.153389241E0
1.538931358E1,-2.325049191E-1,5.546685725E0,9.680071360E-1,5.635318880E0
1.539936658E1,-4.487729242E-1,4.635905288E0,1.845435054E0,5.009854840E0
1.540941958E1,-4.427188633E-1,3.729020852E0,1.046851577E0,3.898396430E0
1.541947258E1,-2.315493744E-1,1.115720667E0,2.419478434E-1,1.164897626E0
1.542952558E1,-8.480957264E-1,-9.342302855E0,2.464532400E0,9.699062271E0
1.543957858E1,-2.274895941E0,-2.279757579E1,2.532909155E0,2.305038486E1
1.544963158E1,-1.772944929E0,-3.198898481E1,5.853396159E-1,3.204342531E1
1.545968458E1,6.086081721E-1,-3.940037275E1,-8.257830439E-1,3.941372470E1
1.546973758E1,4.357923686E0,-4.028060792E1,-2.494445001E0,4.059237772E1
1.547979158E1,7.366349176E0,-3.585277112E1,-4.627645512E0,3.689308066E1
1.548984458E1,6.453759027E0,-2.682626294E1,-6.881965247E0,2.843696247E1
1.549989758E1,3.772261012E0,-1.953754023E1,-8.365371113E0,2.158529280E1
1.550995058E1,1.052246218E0,-1.613677855E1,-9.946244802E0,1.898501066E1
1.552000358E1,-1.753810062E0,-1.452078005E1,-1.004068669E1,1.774103414E1
1.553005658E1,-3.717093701E0,-1.343877970E1,-8.168354445E0,1.615981434E1
1.554010958E1,-4.928622751E0,-1.281077470E1,-5.514836526E0,1.479258911E1
1.555016258E1,-5.763444348E0,-1.234419964E1,-2.552138894E0,1.386037403E1
1.556021558E1,-6.166588817E0,-1.150799166E1,3.262144071E-1,1.306013421E1
1.557026858E1,-5.407848852E0,-9.837460864E0,3.687523162E0,1.181601847E1
1.558032158E1,-3.265508559E0,-7.309304910E0,1.025386448E1,1.300889008E1
1.559037458E1,-4.242052995E-1,-4.529742656E0,1.663494963E1,1.724587104E1
1.560042758E1,5.483579504E-1,-2.025882468E0,1.331138524E1,1.347582551E1
1.561048058E1,-4.043902916E-1,-1.118437868E-1,6.515157130E0,6.528653228E0
1.562053325E1,-7.265463656E-1,1.718073342E0,2.638254347E0,3.231103779E0
1.563058625E1,-1.929030248E-1,3.848121033E0,1.151455926E0,4.021330354E0
1.564063925E1,5.500287922E-1,6.124450858E0,6.801142108E-1,6.186597233E0
1.565069225E1,1.140001523E0,8.255855103E0,5.836947942E-1,8.354606308E0
1.566074525E1,1.239254208E0,9.868175118E0,3.918055487E-1,9.953398552E0
1.567079825E1,9.540001309E-1,1.100589009E1,-4.346468826E-2,1.104724500E1
1.568085225E1,3.529563190E-1,1.178407848E1,-8.876552832E-1,1.182273300E1
1.569090525E1,-3.037839762E-1,1.220852786E1,-1.792451094E0,1.234314863E1
1.570095825E1,-1.197754033E0,1.232860862E1,-2.091927938E0,1.256206065E1
1.571101125E1,-2.529180971E0,1.262143718E1,-2.011352137E0,1.302854444E1
1.572106425E1,-3.856348358E0,1.292890951E1,-1.797684352E0,1.361101733E1
1.573111725E1,-4.802595666E0,1.308324793E1,-1.744640751E0,1.404564249E1
1.574117025E1,-5.125923010E0,1.303010961E1,-1.934751273E0,1.413513727E1
1.575122325E1,-5.035003484E0,1.280894101E1,-1.728489572E0,1.387111770E1
1.576127625E1,-4.661526033E0,1.239184860E1,-1.175360513E0,1.329169699E1
1.577132925E1,-4.180034721E0,1.201101593E1,-6.125180590E-1,1.273233570E1
1.578138225E1,-3.534776933E0,1.160429063E1,-6.466903567E-2,1.213088583E1
1.579143525E1,-2.787107793E0,1.125538493E1,4.311105323E-1,1.160334073E1
1.580148825E1,-2.038506899E0,1.095810079E1,9.230098879E-1,1.118424922E1
1.581154125E1,-1.186151695E0,1.084591144E1,1.872376685E0,1.107007431E1
1.582159425E1,-1.652569324E-4,1.117902030E1,4.643538244E0,1.210507919E1
1.583164725E1,9.591505046E-1,1.123203115E1,5.822187231E0,1.268764587E1
1.584170025E1,1.110971851E0,1.069322777E1,3.930767334E0,1.144684718E1
1.585175325E1,9.007064878E-1,9.681600407E0,2.683153946E0,1.008682178E1
1.586180625E1,6.363391770E-1,8.629561180E0,1.835560277E0,8.845537589E0
1.587185925E1,5.041102057E-1,8.066525769E0,1.196899316E0,8.170405929E0
1.588191225E1,4.184962243E-1,7.814188008E0,6.063843298E-1,7.848845473E0
1.589196525E1,3.387517145E-1,7.803472985E0,-3.359458824E-2,7.810894440E0
1.590201825E1,2.472525471E-1,7.636039719E0,3.762683272E-2,7.640134304E0
1.591207225E1,7.727716751E-3,6.863433082E0,1.751655071E0,7.083436233E0
1.592212525E1,-4.735950125E-1,5.225868298E0,5.123501093E0,7.333774959E0
1.593217825E1,-9.830584538E-1,3.877869328E0,5.998410616E0,7.210076585E0
1.594223125E1,-1.285074305E0,3.862937293E0,1.368447268E-1,4.073380289E0
1.595228425E1,-1.374022442E0,3.559994220E0,-4.339785916E0,5.778861333E0
1.596233725E1,-9.527209063E-1,-1.799710997E0,-3.517503673E0,4.064414950E0
1.597239025E1,-3.381464692E0,-1.748166388E1,-1.027087988E0,1.783529605E1
1.598244325E1,-5.352562843E0,-3.602797709E1,1.236283822E0,3.644438859E1
1.599249625E1,-4.638813694E0,-4.854541336E1,-2.054752694E-1,4.876697623E1
1.600254925E1,-1.998557845E0,-4.979241395E1,-2.897908144E0,4.991669653E1
1.601260225E1,3.465878606E-1,-4.078924551E1,-7.121033921E0,4.140762969E1
1.602265525E1,2.766419759E0,-2.540175958E1,-7.519864900E0,2.663551832E1
1.603270825E1,3.675675534E0,-1.615488738E1,-4.774956170E0,1.724213395E1
1.604276125E1,3.919369941E0,-1.148607864E1,-3.009786429E0,1.250401046E1
1.605281425E1,2.884296118E0,-9.371337789E0,-1.830684283E0,9.974594778E0
1.606286725E1,9.478871593E-1,-9.912464268E0,-1.135186633E0,1.002217973E1
1.607292025E1,-8.713810933E-1,-1.214570771E1,-4.271987816E-1,1.218441708E1
1.608297325E1,-1.836550795E0,-1.283323970E1,1.487693045E0,1.304906858E1
1.609302625E1,-1.506376507E0,-1.117953134E1,4.033495896E0,1.197999083E1
1.610307925E1,5.942543540E-2,-8.210474278E0,8.645110681E0,1.192280831E1
1.611313325E1,2.296233016E0,-4.904980119E0,1.452102447E1,1.549811820E1
1.612318625E1,2.502737523E0,-2.387166136E0,1.238340989E1,1.285733634E1
1.613323925E1,9.939541554E-1,-8.753872401E-1,6.386765138E0,6.522654108E0
1.614329225E1,3.870566228E-1,1.006340312E0,2.851158485E0,3.048218884E0
1.615334525E1,4.436246701E-1,3.233187490E0,1.050986727E0,3.428538652E0
1.616339825E1,7.594407544E-1,5.629668240E0,7.906721950E-2,5.681211700E0
1.617345125E1,1.039914001E0,8.037997203E0,-7.856354034E-1,8.142975080E0
1.618350425E1,6.682583233E-1,9.889592299E0,-1.935417856E0,1.009932905E1
1.619355725E1,-8.070893493E-2,1.115096535E1,-3.059045128E0,1.156323049E1
1.620361025E1,-5.755157820E-1,1.182317764E1,-3.586800780E0,1.236866556E1
1.621366325E1,-1.150475494E0,1.173425435E1,-3.316239586E0,1.224801062E1
1.622371625E1,-2.056653002E0,1.174823504E1,-2.738494919E0,1.223724653E1
1.623376925E1,-3.291156201E0,1.191106363E1,-2.505861105E0,1.260890502E1
1.624382225E1,-4.708467188E0,1.240388217E1,-2.668886740E0,1.353325210E1
1.625387525E1,-5.512729189E0,1.273461238E1,-3.012707698E0,1.419989237E1
1.626392825E1,-5.630834759E0,1.278179590E1,-2.772397660E0,1.423962062E1
1.627398125E1,-5.393004525E0,1.275211076E1,-2.184305760E0,1.401684765E1
1.628403425E1,-5.093320690E0,1.270361629E1,-1.337779791E0,1.375185214E1
1.629408725E1,-4.799962372E0,1.265838223E1,-8.447351854E-2,1.353814667E1
1.630414025E1,-4.205956890E0,1.276427764E1,2.364451457E0,1.364578645E1
1.631419325E1,-3.188215969E0,1.286507779E1,4.928496451E0,1.414089901E1
1.632424625E1,-2.884895750E0,1.276492317E1,4.647280462E0,1.388751608E1
1.633429925E1,-3.399023004E0,1.265494991E1,3.027238029E0,1.344861646E1
1.634435325E1,-4.065541854E0,1.245852907E1,1.705321734E0,1.321558548E1
1.635440625E1,-4.751630457E0,1.108783180E1,6.932973433E-1,1.208299082E1
1.636445925E1,-4.814965743E0,9.433595433E0,6.353467584E-1,1.061038564E1
1.637451225E1,-3.951639262E0,8.280363123E0,1.183338454E0,9.250954340E0
1.638456525E1,-2.403911100E0,7.543029229E0,1.200595926E0,8.007340951E0
1.639461825E1,-7.427570401E-1,7.182600424E0,6.180062556E-1,7.247300781E0
1.640467125E1,7.250795916E-1,6.936013400E0,9.826286834E-1,7.042697028E0
1.641472425E1,1.645464957E0,6.998196200E0,1.222351077E0,7.292218258E0
1.642477725E1,2.273290880E0,7.234404416E0,9.494712431E-2,7.583763817E0
1.643483025E1,2.840459543E0,6.374959610E0,2.683160963E0,7.477143384E0
1.644488325E1,3.159273421E0,3.643307687E0,7.324056265E0,8.769064923E0
1.645493625E1,2.857155682E0,3.759946775E0,2.023785072E0,5.137727549E0
1.646498925E1,2.833398737E0,3.592475502E0,-3.534344823E0,5.781489598E0
1.647504225E1,8.622957627E-1,-6.293924217E0,-3.465654073E0,7.236559555E0
1.648509525E1,-2.027604181E0,-2.213171592E1,-2.212637274E0,2.233427393E1
1.649514825E1,-2.513100543E0,-3.745473279E1,-3.294511333E0,3.768323882E1
1.650520125E1,-2.542431346E0,-5.352504722E1,-6.767205454E0,5.401101468E1
1.651525425E1,-1.437763232E0,-5.385117684E1,-3.061903832E0,5.395731336E1
1.652530725E1,-1.987356041E-1,-3.916128712E1,-1.526662399E0,3.919153739E1
1.653536025E1,1.475426756E0,-2.350437085E1,-3.140167644E0,2.375906113E1
1.654541325E1,2.672977452E0,-1.433802533E1,-2.592922053E0,1.481374441E1
1.655546625E1,3.022557333E0,-9.722646691E0,-2.169106507E0,1.041012654E1
1.656552025E1,3.525529269E0,-7.777151744E0,-1.921779225E0,8.752524279E0
1.657557325E1,3.609808696E0,-7.811871341E0,-2.140980815E0,8.867911339E0
