"Time (s)","Linear Acceleration x (m/s^2)","Linear Acceleration y (m/s^2)","Linear Acceleration z (m/s^2)","Absolute acceleration (m/s^2)"
7.751166675E-3,1.247301731E-1,-5.984011263E-1,-1.914694154E-1,6.405482504E-1
1.779916667E-2,-5.084516537E-1,-9.602651301E-1,-4.755587268E-1,1.186081071E0
2.784816668E-2,-7.475022018E-1,-1.043989949E0,-5.248098242E-1,1.387119284E0
3.789616667E-2,-4.905287683E-1,-7.436719832E-1,-4.852510715E-1,1.014462958E0
4.794416667E-2,-4.492503494E-2,-2.780774966E-1,-4.650407553E-1,5.436986821E-1
5.799316667E-2,7.062185204E-1,2.642327517E-1,-5.211383575E-1,9.165962761E-1
6.804116667E-2,1.667280626E0,8.620985654E-1,-6.091828072E-1,1.973358131E0
7.808916667E-2,2.329806705E0,1.359324735E0,-7.454872513E-1,2.798484278E0
8.813816667E-2,2.511515363E0,1.570156327E0,-8.183260167E-1,3.072907057E0
9.818616667E-2,2.223396150E0,1.492201248E0,-8.946438754E-1,2.823214953E0
1.082341667E-1,1.696716387E0,1.279681857E0,-1.124531837E0,2.404371852E0
1.182821667E-1,1.200707608E0,1.075132512E0,-1.471779848E0,2.182600421E0
1.283311667E-1,8.625204420E-1,8.918594313E-1,-1.768482188E0,2.160297203E0
1.383794167E-1,5.878895867E-1,7.552871847E-1,-2.030029314E0,2.244346656E0
1.484274167E-1,4.164816758E-1,7.342994812E-1,-2.160204706E0,2.319296679E0
1.584764167E-1,4.621687491E-1,8.455632243E-1,-2.132587137E0,2.340193372E0
1.685244167E-1,5.885238634E-1,1.102262716E0,-1.956719263E0,2.321657534E0
1.785724167E-1,8.562541272E-1,1.441347722E0,-1.604408147E0,2.320512850E0
1.886214167E-1,1.064916842E0,1.684820811E0,-1.165445389E0,2.308881114E0
1.986694167E-1,9.713852187E-1,1.724232506E0,-6.816795105E-1,2.093144509E0
2.087174167E-1,5.018020539E-1,1.605956198E0,-2.287927777E-1,1.698012587E0
2.187654167E-1,-3.357178867E-3,1.409792053E0,1.288521677E-1,1.415672202E0
2.288144167E-1,-3.136621892E-1,1.303111065E0,3.004123986E-1,1.373582916E0
2.388624167E-1,-4.856972140E-1,1.366915882E0,4.896487623E-1,1.531050856E0
2.489104167E-1,-2.942064562E-1,1.738100348E0,7.135684705E-1,1.901770286E0
2.589594167E-1,2.304118717E-1,2.184429428E0,8.745206827E-1,2.364235179E0
2.690074167E-1,8.096268216E-1,2.393792785E0,1.113723258E0,2.761542863E0
2.790554167E-1,1.134630270E0,2.287578113E0,1.487220590E0,2.955033766E0
2.891044167E-1,1.157076269E0,2.201733094E0,1.744089358E0,3.037812008E0
2.991524167E-1,9.717552012E-1,1.965768267E0,1.916830142E0,2.912523106E0
3.092004167E-1,9.770419613E-1,1.648197799E0,1.946379631E0,2.731219626E0
3.192484167E-1,9.644993913E-1,1.365245187E0,1.868993486E0,2.507446938E0
3.292974167E-1,8.262554258E-1,1.456761274E0,1.204584312E0,2.062977170E0
3.393454167E-1,5.406595793E-1,1.254581075E0,7.080960613E-1,1.538728855E0
3.493934167E-1,3.348960605E-1,7.176069961E-1,1.239364720E0,1.470761735E0
3.594424167E-1,-9.105605811E-2,1.227932244E0,2.141242186E0,2.470025688E0
3.694904167E-1,1.862630546E-1,1.369132269E0,2.123476591E0,2.533450202E0
3.795384167E-1,4.008643475E-1,1.781792790E0,2.099122937E0,2.782408107E0
3.895874167E-1,3.161881864E-1,2.172104813E0,2.358209555E0,3.221671397E0
3.996354167E-1,6.940130424E-1,1.753935485E0,2.334772160E0,3.001517088E0
4.096834167E-1,1.351738265E0,9.132396291E-1,1.673122872E0,2.336780499E0
4.197314167E-1,1.298430954E0,3.141031424E-1,1.131060838E0,1.750394911E0
4.297804167E-1,1.121320546E-1,2.289251075E-1,9.970952797E-1,1.029164369E0
4.398284167E-1,-1.371595409E0,5.919881194E-1,9.321508402E-1,1.760860326E0
4.498764167E-1,-2.273365286E0,8.461437797E-1,6.518932092E-1,2.511794931E0
4.599254167E-1,-2.299532161E0,9.349733642E-1,4.792255157E-1,2.528177297E0
4.699734167E-1,-1.436643929E0,1.310013557E0,6.648371905E-1,2.054772442E0
4.800214167E-1,-2.556461155E-1,1.535403109E0,1.167345150E0,1.945639314E0
4.900704167E-1,1.320352750E0,1.314833709E0,1.989318659E0,2.725712346E0
5.001184167E-1,2.622973818E0,1.140380422E0,5.191380835E0,5.927132033E0
5.101664167E-1,3.777010705E0,1.506394780E0,6.559590122E0,7.717723606E0
5.202144167E-1,4.332672193E0,1.081848405E0,6.210826512E0,7.649628113E0
5.302634167E-1,4.147578582E0,4.419413298E-2,6.675613498E0,7.859273299E0
5.403114167E-1,4.047587101E0,-8.669587710E-1,6.176648952E0,7.435426761E0
5.503594167E-1,3.724099835E0,-1.736680936E0,5.523478126E0,6.884314843E0
5.604084167E-1,3.712811785E0,-2.410340260E0,4.762341387E0,6.501892571E0
5.704564167E-1,4.338287274E0,-2.644711719E0,3.720668104E0,6.297508054E0
5.805044167E-1,5.150699417E0,-2.628916636E0,2.797572262E0,6.423964331E0
5.905524167E-1,5.111126631E0,-2.190247554E0,1.856839464E0,5.862478365E0
6.006014167E-1,4.316777707E0,-1.533873623E0,1.483619875E0,4.815440374E0
6.106494167E-1,3.490073799E0,-1.516891701E0,2.267489419E0,4.429795009E0
6.206974167E-1,1.665009860E0,-1.602645066E0,3.379356186E0,4.093992828E0
6.307464167E-1,1.048974116E0,2.324085496E-1,1.629229578E0,1.951601764E0
6.407944167E-1,2.645673294E0,3.081911834E0,8.751077431E-1,4.154946606E0
6.508424167E-1,3.714296101E0,2.425823248E0,2.036063640E0,4.881205702E0
6.608914167E-1,3.900188735E0,7.546489611E-1,1.973299627E0,4.435637343E0
6.709394167E-1,3.780763740E0,-2.538334787E-1,2.637304759E-1,3.798441741E0
6.809874167E-1,2.835951339E0,-5.009047987E-1,-8.568948358E-1,3.004628825E0
6.910354167E-1,-3.634401208E-1,1.789455566E-1,-1.518290355E0,1.571405688E0
7.010844167E-1,-5.403056474E0,4.586235823E-1,-1.652364671E-2,5.422511215E0
7.111324167E-1,-3.700158703E0,-5.214704794E-1,4.422290128E0,5.789624847E0
7.211804167E-1,-8.806965119E-1,-2.537604762E0,7.636801026E0,8.095418099E0
7.312294167E-1,-1.554846855E0,-3.593264292E0,7.473243295E0,8.436732920E0
7.412774167E-1,-1.001235255E0,-4.259419152E0,3.923273542E0,5.876835784E0
7.513254167E-1,-8.687651221E-1,-4.919375380E0,1.734021038E-1,4.998507303E0
7.613734167E-1,-1.868886482E0,-4.787652229E0,-1.515093682E0,5.358158211E0
7.714224167E-1,-2.509833119E0,-4.390287440E0,-2.145685485E0,5.493437202E0
7.814704167E-1,-2.329824977E0,-4.443562299E0,-2.339647568E0,5.535998652E0
7.915184167E-1,-2.156987861E0,-4.799815022E0,-2.213746490E0,5.708896076E0
8.015674167E-1,-2.353005240E0,-5.295527932E0,-2.122928706E0,6.171391742E0
8.116154167E-1,-2.662274709E0,-5.822297158E0,-2.306716050E0,6.804982716E0
8.216634167E-1,-3.141716864E0,-6.115460179E0,-2.817360994E0,7.430125236E0
8.317124167E-1,-3.366096455E0,-6.078633245E0,-3.114460360E0,7.614476398E0
8.417604167E-1,-3.238204401E0,-5.856502200E0,-3.651520101E0,7.623528370E0
8.518084167E-1,-3.212590965E0,-5.586100636E0,-4.101953927E0,7.638801414E0
8.618564167E-1,-2.596024001E0,-5.375506148E0,-4.457056503E0,7.449883196E0
8.719054167E-1,-2.583234971E0,-5.300999756E0,-4.972509028E0,7.713594971E0
8.819534167E-1,-3.138600006E0,-5.338635945E0,-5.265976104E0,8.129104998E0
8.920014167E-1,-3.194815722E0,-5.245961085E0,-4.809711435E0,7.801299846E0
9.020504167E-1,-3.155887006E0,-4.954941654E0,-4.123207387E0,7.177179721E0
9.120984167E-1,-3.332109514E0,-5.088728287E0,-3.778187749E0,7.160503618E0
9.221464167E-1,-3.268460526E0,-5.099264385E0,-4.131456639E0,7.331730043E0
9.321944167E-1,-3.414750260E0,-5.057190744E0,-4.845282387E0,7.791820003E0
9.422434167E-1,-3.376674361E0,-4.500857996E0,-4.852465691E0,7.430079119E0
9.522914167E-1,-3.259084515E0,-3.735433493E0,-4.544548976E0,6.725178113E0
9.623394167E-1,-2.783629869E0,-3.212044542E0,-3.403016360E0,5.444845795E0
9.723884167E-1,-2.324109178E0,-2.427182141E0,-1.539859564E0,3.696466433E0
9.824364167E-1,-2.019366916E0,-1.774593113E0,-2.448755443E-1,2.699442070E0
9.924844167E-1,-1.545928974E0,-1.113299920E0,3.586775637E-1,1.938551702E0
1.002532417E0,-1.213811145E0,-1.898427200E-1,5.417223108E-1,1.342699079E0
1.012581417E0,-1.076585765E0,8.547144091E-1,4.034187037E-1,1.432592154E0
1.022629417E0,-1.111261361E0,1.776848384E0,2.825754672E-1,2.114696406E0
1.032677417E0,-1.183965495E0,2.463513815E0,4.269566703E-1,2.766399575E0
1.042726417E0,-1.210169134E0,2.869675156E0,7.818072313E-1,3.211038364E0
1.052774417E0,-1.382835658E0,3.051222723E0,1.336849499E0,3.606849199E0
1.062822417E0,-1.618200267E0,3.205743290E0,1.955832825E0,4.089088430E0
1.072870417E0,-1.448462175E0,2.716684220E0,2.397404611E0,3.902046218E0
1.082919417E0,-1.752263474E0,1.571776299E0,2.877993112E0,3.718030711E0
1.092967417E0,-2.046120559E0,6.617767578E-1,3.121212140E0,3.790319649E0
1.103015417E0,-2.049212859E0,2.567980170E-1,3.051308092E0,3.684521629E0
1.113064417E0,-1.709061759E0,4.452128470E-2,3.140500351E0,3.575698071E0
1.123112417E0,-9.920083483E-1,-1.274760255E-1,3.902089080E0,4.028229125E0
1.133160292E0,-1.482122988E-2,-2.595082015E-1,4.985870501E0,4.992641468E0
1.143208292E0,6.046681720E-1,-4.772383395E-1,5.910160929E0,5.960149515E0
1.153257292E0,9.566408797E-1,-9.253440964E-1,6.740786564E0,6.870926209E0
1.163305292E0,1.007582846E0,-1.678581832E0,6.954928558E0,7.225226045E0
1.173353292E0,1.051212722E0,-2.214301684E0,6.257608915E0,6.720554253E0
1.183402292E0,1.404164400E0,-2.181611070E0,4.999758223E0,5.632822278E0
1.193450292E0,1.786331106E0,-1.986160870E0,3.689531096E0,4.555047040E0
1.203498292E0,2.035678016E0,-1.628143165E0,2.321859169E0,3.490825855E0
1.213546292E0,2.224372928E0,-1.161167859E0,1.075260274E0,2.729895671E0
1.223595292E0,2.329432629E0,-6.292425576E-1,2.464730036E-1,2.425479645E0
1.233643292E0,2.123025624E0,-2.388686997E-1,-1.335159069E-1,2.140589300E0
1.243691292E0,1.790935642E0,-9.894979924E-2,-3.983795732E-1,1.837375253E0
1.253739292E0,1.436661032E0,-1.045680964E-1,-7.461748838E-1,1.622253484E0
1.263788292E0,1.191697341E0,-2.684740296E-1,-1.071157867E0,1.624684595E0
1.273836292E0,1.009915885E0,-5.267429137E-1,-1.053712115E0,1.551675679E0
1.283884292E0,9.896618606E-1,-8.393236604E-1,-7.936191916E-1,1.521093760E0
1.293933292E0,1.228569006E0,-1.144219119E0,-2.686275190E-1,1.700229378E0
1.303981292E0,1.122926045E0,-1.441524015E0,5.210787159E-1,1.900125632E0
1.314029292E0,1.475705522E0,-1.550238080E0,1.213805371E0,2.460542292E0
1.324077292E0,1.375712580E0,-1.575837775E0,1.722932378E0,2.710045345E0
1.334126292E0,1.032803641E0,-1.730693680E0,1.583630651E0,2.563175767E0
1.344174292E0,7.621737429E-1,-1.896387691E0,1.078060505E0,2.310716241E0
1.354222292E0,5.195768586E-1,-1.934348108E0,3.084301007E-1,2.026522105E0
1.364271292E0,3.094527787E-1,-2.026894621E0,-7.299348271E-1,2.176434626E0
1.374319292E0,3.302036700E-1,-2.027066822E0,-1.548190092E0,2.571950024E0
1.384367292E0,3.635754839E-1,-1.869426180E0,-2.039367902E0,2.790333818E0
1.394415292E0,6.177583337E-4,-1.859925916E0,-2.276655514E0,2.939810390E0
1.404464292E0,-2.610258463E-1,-1.739920001E0,-2.091049102E0,2.732753639E0
1.414512292E0,-4.757744890E-1,-1.526922015E0,-1.579845164E0,2.248057594E0
1.424560292E0,-2.940212457E-1,-1.351496482E0,-1.243613892E0,1.859991061E0
1.434609292E0,-8.684737846E-2,-1.291794364E0,-8.556160498E-1,1.551887229E0
1.444657292E0,1.969745690E-1,-1.368426218E0,-4.061686492E-1,1.440958801E0
1.454705292E0,5.583858521E-1,-1.437033061E0,-1.582022667E-2,1.541787618E0
1.464753292E0,6.366727607E-1,-1.330563450E0,3.609533000E-1,1.518564646E0
1.474802292E0,3.926551491E-1,-1.243881402E0,6.937019706E-1,1.477376537E0
1.484850292E0,3.604283662E-1,-1.150213100E0,7.608917409E-1,1.425431522E0
1.494898292E0,3.648156783E-1,-1.007314458E0,7.408404690E-1,1.302542705E0
1.504946292E0,5.978050026E-1,-8.330077904E-1,7.383899009E-1,1.263523821E0
1.514995292E0,1.004992675E0,-6.664931220E-1,8.257794625E-1,1.461552284E0
1.525043292E0,1.334291342E0,-5.269978523E-1,1.165317335E0,1.848249067E0
1.535091292E0,1.455840338E0,-3.859399143E-1,1.612520574E0,2.206500240E0
1.545140292E0,1.311706764E0,-3.630015796E-1,1.705410612E0,2.181918912E0
1.555188292E0,1.004986682E0,-4.620668614E-1,1.259943411E0,1.676592203E0
1.565236292E0,9.983845907E-1,-3.739756340E-1,7.380636263E-1,1.296675550E0
1.575284292E0,1.419571960E0,-1.724595326E-1,4.010254383E-1,1.485176165E0
1.585333292E0,1.763769478E0,4.582345963E-2,-2.008635521E-2,1.764478967E0
1.595381292E0,2.196203382E0,4.674003991E-1,-2.924473214E-1,2.264353741E0
1.605429292E0,2.502661509E0,8.886861473E-1,-4.091852278E-1,2.687100714E0
1.615477292E0,2.422899348E0,9.534654030E-1,-4.312806863E-1,2.639231054E0
1.625526292E0,2.170254316E0,8.785751420E-1,-5.496008492E-1,2.404986314E0
1.635574292E0,2.040174233E0,9.722405201E-1,-6.596086103E-1,2.354282491E0
1.645622292E0,2.001012506E0,9.633357954E-1,-5.673243445E-1,2.292143934E0
1.655671292E0,2.588432561E0,6.570542541E-1,-7.224930757E-1,2.766532064E0
1.665719292E0,3.356625720E0,2.913246560E-1,-6.894054365E-1,3.439053087E0
1.675767292E0,3.628884653E0,1.221381024E-1,-3.646043015E-1,3.649199616E0
1.685815292E0,3.613483964E0,7.181199431E-2,1.199597222E-1,3.616187724E0
1.695864292E0,3.196985039E0,3.089931875E-2,4.684069973E-1,3.231264957E0
1.705912292E0,2.453496073E0,-1.968558705E-1,2.373139250E-1,2.472794596E0
1.715960292E0,1.866628287E0,-4.127985147E-1,-2.514285189E-1,1.928190882E0
1.726008292E0,1.679412575E0,-4.884769803E-1,-6.607394618E-1,1.869655849E0
1.736057292E0,1.686826845E0,-5.480188850E-1,-8.569889760E-1,1.969806997E0
1.746105292E0,1.752391820E0,-5.747757438E-1,-9.347037345E-1,2.067586834E0
1.756153292E0,1.628285545E0,-5.737676838E-1,-9.046548933E-1,1.949082771E0
1.766202292E0,1.305281259E0,-6.176519144E-1,-7.467099041E-1,1.625677930E0
1.776250292E0,8.787318474E-1,-7.589779472E-1,-5.667992646E-1,1.292083043E0
1.786298292E0,4.606999286E-1,-8.176480320E-1,-7.116038060E-1,1.177782962E0
1.796346292E0,1.211967006E-2,-8.043625733E-1,-1.004048204E0,1.286568627E0
1.806395292E0,-3.747226158E-1,-9.016462085E-1,-1.245323617E0,1.582470801E0
1.816443292E0,-6.479977942E-1,-9.285495400E-1,-1.245803089E0,1.683487667E0
1.826491292E0,-8.830397835E-1,-7.990307897E-1,-1.087510775E0,1.612727239E0
1.836539292E0,-9.281658165E-1,-6.118929917E-1,-9.266544574E-1,1.447270984E0
1.846588292E0,-9.901638441E-1,-4.176584280E-1,-7.536569810E-1,1.312578320E0
1.856636292E0,-1.211732679E0,-2.578247881E-1,-6.209082288E-1,1.385747717E0
1.866684292E0,-1.461337744E0,-1.653700760E-1,-5.751397330E-1,1.579126650E0
1.876732292E0,-1.580630737E0,-1.348642749E-1,-5.023699647E-1,1.664018474E0
1.886781292E0,-1.612194592E0,-1.118724382E-1,-3.950770658E-1,1.663662446E0
1.896829292E0,-1.532629190E0,-1.945105523E-2,-3.360663807E-1,1.569162576E0
1.906877292E0,-1.552296153E0,-5.485916197E-2,-2.924502450E-1,1.580556871E0
1.916926292E0,-1.662289881E0,-1.463368043E-1,-1.116034663E-1,1.672446544E0
1.926974292E0,-1.697672114E0,-2.393364769E-1,2.152582276E-1,1.727920328E0
1.937022292E0,-1.694164077E0,-3.046984076E-1,6.397614062E-1,1.836389854E0
1.947070292E0,-1.649779032E0,-3.170059195E-1,1.208717124E0,2.069603995E0
1.957119292E0,-1.409342840E0,-1.947754312E-1,1.921134278E0,2.390594408E0
1.967167292E0,-7.069391897E-1,-2.331869602E-3,2.703404608E0,2.794309384E0
1.977215292E0,-2.533060598E-1,-3.137586683E-2,2.602437227E0,2.614924077E0
1.987263292E0,-3.711739406E-1,2.623707059E-1,2.167676863E0,2.214820865E0
1.997312292E0,-2.908440149E-1,6.241078252E-1,2.103033555E0,2.212882950E0
2.007360292E0,-4.209682444E-1,4.917192614E-1,8.566825819E-1,1.073735135E0
2.017408292E0,-5.281883454E-1,-3.999203146E-2,-8.517451930E-1,1.003021518E0
2.027456292E0,-9.538785088E-1,1.195834538E-1,-9.462361979E-1,1.348905984E0
2.037505292E0,-1.044065963E0,3.820149708E-1,-4.509086198E-1,1.199719866E0
2.047553292E0,-1.161867332E0,1.072005129E-1,7.835152030E-2,1.169430035E0
2.057601292E0,-1.315879045E0,-1.355039603E-1,6.340790820E-1,1.466954419E0
2.067650292E0,-1.074087761E0,-1.025695181E-1,8.748568976E-1,1.389085892E0
2.077698292E0,-6.690694052E-1,-7.888887942E-2,8.439754128E-1,1.079894357E0
2.087746292E0,-2.416424726E-1,9.696145356E-2,7.547252673E-1,7.983751231E-1
2.097794292E0,1.123245741E-1,3.303673920E-1,5.534693670E-1,6.542841614E-1
2.107843292E0,4.277458982E-1,5.060352919E-1,1.992158067E-1,6.918997093E-1
2.117891292E0,5.521280158E-1,6.277073711E-1,2.141250372E-3,8.359823410E-1
2.127939292E0,8.024373776E-1,7.025280502E-1,-4.009587801E-1,1.139394291E0
2.137986667E0,8.974540472E-1,7.791332996E-1,-4.486814153E-1,1.270349353E0
2.148035667E0,6.947256719E-1,6.179217634E-1,-1.490408492E-1,9.416391238E-1
2.158083667E0,4.555613954E-1,3.011649352E-1,2.194284618E-1,5.885451156E-1
2.168131667E0,3.453951748E-1,9.909451783E-2,3.385765904E-1,4.937121204E-1
2.178179667E0,3.159844109E-1,7.517268151E-2,3.262331182E-1,4.603532637E-1
2.188228667E0,4.728399177E-1,3.264675915E-2,2.966678417E-1,5.591557984E-1
2.198276667E0,6.690639965E-1,4.927390158E-2,8.559329689E-2,6.763140996E-1
2.208324667E0,9.149530095E-1,2.642456156E-1,-1.037623501E-1,9.579829749E-1
2.218372667E0,1.329049314E0,4.671162245E-1,1.551704854E-1,1.417267626E0
2.228421667E0,1.732545201E0,5.050017965E-1,7.433571106E-1,1.951747801E0
2.238469667E0,1.867322060E0,4.073769763E-1,1.007902104E0,2.160720788E0
2.248517667E0,1.661058458E0,2.409871459E-1,8.105468810E-1,1.863914228E0
2.258566667E0,1.443677983E0,1.778050572E-1,4.956626236E-1,1.536717994E0
2.268614667E0,1.336644554E0,3.688183898E-1,1.195591879E-1,1.391739943E0
2.278662667E0,1.416013636E0,6.542376503E-1,-1.185423571E-1,1.564344531E0
2.288710667E0,1.628014526E0,8.294436201E-1,-1.777898544E-1,1.835760673E0
2.298759667E0,1.803036894E0,7.744169354E-1,-1.390444493E-1,1.967230792E0
2.308807667E0,2.007088932E0,7.075905696E-1,-1.260074973E-1,2.131893123E0
2.318855667E0,2.435769362E0,6.998567498E-1,6.041869462E-2,2.535038910E0
2.328903667E0,3.026719966E0,8.407848796E-1,4.332459354E-1,3.171065279E0
2.338952667E0,3.553285709E0,9.792101088E-1,4.967431891E-1,3.719065146E0
2.349000667E0,3.881119210E0,1.014516766E0,2.370607406E-1,4.018523160E0
2.359048667E0,3.865712382E0,9.350741556E-1,-1.130512369E-1,3.978803397E0
2.369096667E0,3.386699412E0,7.134105957E-1,-3.861764342E-1,3.482501949E0
2.379145667E0,2.773015126E0,4.199046358E-1,-6.973430318E-1,2.890020778E0
2.389193667E0,2.244747258E0,1.575114182E-1,-9.431740111E-1,2.439933875E0
2.399241667E0,1.897483460E0,6.532743216E-2,-1.097341114E0,2.192913285E0
2.409289667E0,1.804612134E0,1.262992734E-1,-1.340656621E0,2.251651979E0
2.419338667E0,1.970404086E0,2.955384520E-1,-1.404704683E0,2.437833154E0
2.429386667E0,2.282269718E0,4.092784908E-1,-1.252908041E0,2.635534578E0
2.439434667E0,2.433616563E0,2.471059647E-1,-1.105276371E0,2.684247900E0
2.449482667E0,2.346976615E0,-1.489279979E-1,-9.100746775E-1,2.521649202E0
2.459531667E0,2.141943559E0,-5.596919739E-1,-7.650046724E-1,2.342308576E0
2.469579667E0,1.726886119E0,-9.250362405E-1,-7.376087129E-1,2.093297477E0
2.479627667E0,1.104191274E0,-1.188702982E0,-8.826886582E-1,1.846995510E0
2.489676667E0,2.439543886E-1,-1.320839238E0,-1.076610981E0,1.721400953E0
2.499724667E0,-4.689963967E-1,-1.347958332E0,-1.284771273E0,1.920308962E0
2.509772667E0,-8.465073303E-1,-1.392053939E0,-1.398274500E0,2.146988684E0
2.519820667E0,-9.015568192E-1,-1.479620672E0,-1.479304630E0,2.278250253E0
2.529869667E0,-6.836086531E-1,-1.542964143E0,-1.506294208E0,2.262074574E0
2.539917667E0,-4.707533388E-1,-1.550005653E0,-1.395805805E0,2.138317113E0
2.549965667E0,-5.880024379E-1,-1.553118126E0,-1.333835260E0,2.130032695E0
2.560013667E0,-1.015730064E0,-1.600672361E0,-1.318693310E0,2.309288119E0
2.570062667E0,-1.358506709E0,-1.642279101E0,-1.206922613E0,2.449343447E0
2.580110667E0,-1.618538529E0,-1.695331766E0,-9.844898522E-1,2.542250388E0
2.590158667E0,-1.836430050E0,-1.736468390E0,-8.008235461E-1,2.651248036E0
2.600206667E0,-1.957783017E0,-1.632719781E0,-8.034220487E-1,2.672858996E0
2.610255667E0,-1.829686748E0,-1.282199083E0,-8.967985743E-1,2.407495746E0
2.620303667E0,-1.348454176E0,-8.594924614E-1,-8.781997508E-1,1.824360370E0
2.630351667E0,-7.101094770E-1,-6.051581687E-1,-6.876729065E-1,1.159036628E0
2.640399667E0,-3.431936981E-1,-5.976208153E-1,-4.215228528E-1,8.078453248E-1
2.650448667E0,-3.558624948E-1,-7.827290449E-1,5.781376004E-2,8.617687066E-1
2.660496667E0,-5.821497405E-1,-1.077420528E0,6.038010299E-1,1.365397011E0
2.670544667E0,-9.608681973E-1,-1.405602815E0,1.106328869E0,2.030504995E0
2.680592667E0,-1.249940287E0,-1.595340285E0,1.496074444E0,2.519067305E0
2.690641667E0,-1.202977643E0,-1.568813807E0,1.694143027E0,2.603546152E0
2.700689667E0,-5.027913297E-1,-1.399127609E0,1.622166726E0,2.200404979E0
2.710737667E0,5.911195155E-1,-1.022769527E0,1.434712594E0,1.858461733E0
2.720785667E0,1.567616005E0,-5.459782067E-1,1.314669256E0,2.117514438E0
2.730834667E0,2.249908888E0,-2.332390004E-1,1.278894237E0,2.598472802E0
2.740882667E0,2.494312854E0,-2.177076262E-1,1.241962638E0,2.794899716E0
2.750930667E0,2.182785045E0,-4.226607209E-1,9.095881891E-1,2.402195519E0
2.760978667E0,1.467843648E0,-6.335443541E-1,3.037996906E-1,1.627340676E0
2.771027667E0,8.727692223E-1,-7.370824635E-1,-2.638205230E-1,1.172441018E0
2.781075667E0,6.012167799E-1,-6.803893223E-1,-5.118635041E-1,1.042302976E0
2.791123667E0,7.260182890E-1,-5.323863539E-1,-3.814951533E-1,9.777915615E-1
2.801171667E0,1.017798589E0,-4.582497990E-1,-2.180327314E-1,1.137297287E0
2.811220667E0,1.219357156E0,-5.867555192E-1,-3.521713668E-1,1.398262702E0
2.821268667E0,1.117018384E0,-6.927202231E-1,-3.745317042E-1,1.366698714E0
2.831316667E0,6.868369009E-1,-8.358311185E-1,-1.646108150E-2,1.081956355E0
2.841364667E0,1.870227541E-1,-9.870959562E-1,3.632407308E-1,1.068306962E0
2.851413667E0,-2.799122798E-1,-1.091103597E0,4.222093159E-1,1.202962448E0
2.861461667E0,-5.831768040E-1,-1.146421181E0,2.118112940E-1,1.303549283E0
2.871509667E0,-7.210110258E-1,-1.068610528E0,-2.296078795E-1,1.309391132E0
2.881557667E0,-5.808388679E-1,-7.360358119E-1,-7.221738178E-1,1.183493781E0
2.891606667E0,-1.254695535E-2,-3.400647068E-1,-1.187711586E0,1.235499997E0
2.901654667E0,5.011066007E-1,-8.107924640E-2,-1.529079638E0,1.611138171E0
2.911702667E0,5.835160156E-1,1.988667279E-2,-1.706908668E0,1.804002113E0
2.921750667E0,3.619006220E-1,2.523073554E-2,-1.737417685E0,1.774888409E0
2.931799667E0,-1.002797484E-2,-5.295121551E-2,-1.487648022E0,1.488623870E0
2.941847667E0,-1.917532247E-1,-2.890527204E-1,-1.247516323E0,1.294842752E0
2.951895667E0,-2.309068385E-1,-5.736703277E-1,-1.167899466E0,1.321516089E0
2.961943667E0,-1.281502826E-1,-7.235821196E-1,-1.110751703E0,1.331826913E0
2.971992667E0,3.777593672E-1,-6.495566618E-1,-1.001761358E0,1.252258685E0
2.982040667E0,1.052701570E0,-6.604859850E-1,-1.027677387E0,1.612619962E0
2.992088667E0,1.369133585E0,-8.287831771E-1,-1.275068403E0,2.046266787E0
3.002136667E0,1.237658210E0,-9.878464463E-1,-1.644722945E0,2.283145202E0
3.012185667E0,8.421640916E-1,-1.394072691E0,-2.034503603E0,2.606124313E0
3.022233667E0,4.480026267E-1,-1.914850275E0,-2.395814168E0,3.099561817E0
3.032281667E0,1.649525117E-1,-2.355490015E0,-2.861325039E0,3.709814486E0
3.042329667E0,-1.639950301E-1,-2.694484389E0,-3.359728838E0,4.309862916E0
3.052378667E0,-6.397051267E-1,-2.899993846E0,-3.923422646E0,4.920612992E0
3.062426667E0,-1.087204016E0,-3.107335236E0,-4.626691246E0,5.678363913E0
3.072474667E0,-1.248435506E0,-3.239358349E0,-5.305108595E0,6.340048180E0
3.082522667E0,-1.155530558E0,-3.169198193E0,-5.849071559E0,6.752089021E0
3.092571667E0,-1.011088178E0,-3.058261309E0,-6.350658581E0,7.120823404E0
3.102619667E0,-6.593739177E-1,-2.899933035E0,-6.629527498E0,7.266018196E0
3.112667667E0,-7.832343174E-1,-2.703260182E0,-6.515623153E0,7.097493690E0
3.122715667E0,-1.268585888E0,-2.642760504E0,-6.115478305E0,6.781782077E0
3.132764667E0,-1.863137207E0,-2.778300132E0,-5.583585164E0,6.508967288E0
3.142813167E0,-2.598517254E0,-2.669755636E0,-5.142461275E0,6.350180709E0
3.152861167E0,-2.919701886E0,-2.160699673E0,-5.006125841E0,6.185028546E0
3.162909167E0,-2.686131933E0,-1.506362328E0,-4.816217632E0,5.716676001E0
3.172958167E0,-1.722003402E0,-9.059243238E-1,-3.832058732E0,4.297751589E0
3.183006167E0,-9.683594307E-1,-4.864234382E-1,-2.028069327E0,2.299433179E0
3.193054167E0,-8.416714637E-1,-4.464463171E-1,1.919161427E-1,9.718832094E-1
3.203102167E0,-8.770064802E-1,-5.795157892E-1,1.836504602E0,2.116064288E0
3.213151167E0,-1.086498330E0,-6.420023516E-1,2.866385804E0,3.131902492E0
3.223199167E0,-1.644841205E0,-3.255218044E-1,3.339015076E0,3.736373738E0
3.233247167E0,-1.884939136E0,5.055543584E-1,2.794675552E0,3.408634946E0
3.243295167E0,-1.714512826E0,1.718726183E0,2.256762702E0,3.314596780E0
3.253343167E0,-1.170005048E0,3.160466546E0,2.303262684E0,4.081970062E0
3.263392167E0,-1.886006252E-1,4.460543490E0,3.755885299E0,5.834268832E0
3.273440167E0,7.472785458E-1,5.134737103E0,7.208452719E0,8.881764517E0
3.283488167E0,1.426851158E0,5.576367946E0,1.080344779E1,1.224117101E1
3.293536167E0,2.347142091E0,5.726661268E0,1.374470017E1,1.507383521E1
3.303585167E0,3.331609870E0,6.133996437E0,1.560333239E1,1.709355195E1
3.313633167E0,4.920351865E0,7.188818938E0,1.625372053E1,1.844105233E1
3.323681167E0,6.807805011E0,8.738015921E0,1.605202667E1,1.950299186E1
3.333729167E0,7.736381448E0,9.838291168E0,1.599753530E1,2.031168892E1
3.343778167E0,7.393218302E0,9.622020788E0,1.683603070E1,2.075318989E1
3.353826167E0,6.552896814E0,8.624756523E0,1.773505180E1,2.078121614E1
3.363874167E0,6.404641246E0,7.482518733E0,1.784539929E1,2.038297799E1
3.373922167E0,6.768099493E0,6.480755621E0,1.700472755E1,1.941566695E1
3.383971167E0,7.619573960E0,5.800913306E0,1.573055494E1,1.841626621E1
3.394019167E0,8.227627670E0,5.316066277E0,1.435167039E1,1.737598517E1
3.404067167E0,8.301739959E0,4.796931176E0,1.299317508E1,1.614781824E1
3.414115167E0,7.386642523E0,3.858010137E0,1.132329216E1,1.405929142E1
3.424164167E0,5.754768249E0,2.554894979E0,9.704164812E0,1.156787192E1
3.434212167E0,4.177003525E0,1.200904367E0,8.290156040E0,9.360353461E0
3.444260167E0,2.839043639E0,-1.707036138E-1,7.060059156E0,7.611421930E0
3.454308167E0,1.385790987E0,-1.495318984E0,6.042534875E0,6.377195562E0
3.464357167E0,-1.313622312E-1,-2.776785995E0,4.925318490E0,5.655666073E0
3.474405167E0,-1.790932134E0,-4.042870152E0,3.468395247E0,5.619786701E0
3.484453167E0,-3.309177612E0,-5.034814035E0,1.671601426E0,6.252540296E0
3.494501167E0,-4.397211421E0,-5.734746798E0,-2.153365803E-1,7.229741279E0
3.504550167E0,-5.335011256E0,-6.294201375E0,-1.863315255E0,8.458797775E0
3.514598167E0,-6.392472605E0,-6.839571764E0,-3.405479207E0,9.961964492E0
3.524646167E0,-7.322141887E0,-7.440525200E0,-4.877932069E0,1.152256041E1
3.534694167E0,-8.048560199E0,-7.965499331E0,-6.174725218E0,1.289789643E1
3.544742167E0,-8.237247509E0,-8.512409291E0,-7.040550506E0,1.377979354E1
3.554791167E0,-8.063043752E0,-9.017267246E0,-7.415052974E0,1.418826253E1
3.564839167E0,-7.626314630E0,-9.502171578E0,-7.333272062E0,1.422071794E1
3.574887167E0,-6.770476971E0,-9.880906845E0,-6.962812359E0,1.385468998E1
3.584935167E0,-5.993148122E0,-1.009309762E1,-6.599447082E0,1.346629666E1
3.594984167E0,-5.607743520E0,-1.018314591E1,-6.601770766E0,1.336886777E1
3.605032167E0,-5.521167306E0,-1.023470081E1,-6.886575776E0,1.351507733E1
3.615080167E0,-5.657051336E0,-1.044718512E1,-7.336598543E0,1.396322259E1
3.625128167E0,-6.065356557E0,-1.046921860E1,-7.765056193E0,1.437668898E1
3.635177167E0,-6.397647976E0,-9.986377752E0,-8.055275726E0,1.433684440E1
3.645225167E0,-6.287059586E0,-8.849300129E0,-8.094661986E0,1.354107764E1
3.655273167E0,-5.816406088E0,-7.339440290E0,-8.178245595E0,1.243308749E1
3.665321167E0,-4.762810333E0,-6.174013027E0,-8.302637506E0,1.139019704E1
3.675370167E0,-3.133791255E0,-5.751425981E0,-8.219897650E0,1.051029333E1
3.685418167E0,-1.543988137E0,-5.916926157E0,-7.449417061E0,9.637828026E0
3.695466167E0,-3.973022237E-2,-6.101521586E0,-5.735689954E0,8.374263156E0
3.705514167E0,1.001732853E0,-5.846932063E0,-3.020505545E0,6.656841368E0
3.715562167E0,2.094052963E0,-5.128957715E0,8.671011508E-2,5.540648310E0
3.725611167E0,3.498447012E0,-4.385066169E0,2.931112143E0,6.329246021E0
3.735659167E0,5.238083131E0,-3.595138324E0,4.886976542E0,8.015302501E0
3.745707167E0,7.066357777E0,-2.897899373E0,5.590734555E0,9.465069776E0
3.755755167E0,8.104261360E0,-2.319395737E0,5.461978866E0,1.004449411E1
3.765804167E0,8.013830076E0,-1.973946329E0,4.428133251E0,9.366231937E0
3.775852167E0,7.117788132E0,-2.134175241E0,2.837159082E0,7.954060818E0
3.785900167E0,6.343461828E0,-2.787982829E0,1.533557435E0,7.096770718E0
3.795948167E0,5.595022902E0,-3.880888830E0,3.984374607E-1,6.820874709E0
3.805997167E0,4.714450936E0,-5.509495679E0,-1.243968233E0,7.357176580E0
3.816045167E0,3.550074711E0,-7.120680749E0,-2.956439357E0,8.488089211E0
3.826093167E0,2.212691653E0,-8.554078304E0,-4.051761428E0,9.720341077E0
3.836141167E0,4.451847804E-1,-9.808324188E0,-5.059953554E0,1.104556666E1
3.846190167E0,-1.521489952E0,-1.119151930E1,-5.948512816E0,1.276518079E1
3.856238167E0,-3.324752840E0,-1.246896285E1,-6.837876656E0,1.460429981E1
3.866286167E0,-4.317592224E0,-1.348824246E1,-7.538421038E0,1.604375514E1
3.876334167E0,-5.511824625E0,-1.493390104E1,-8.254429552E0,1.793145890E1
3.886383167E0,-8.620317317E0,-1.630568473E1,-8.846165437E0,2.045580280E1
3.896431167E0,-1.374460895E1,-1.570461786E1,-1.006374577E1,2.316955495E1
3.906479167E0,-2.003610424E1,-1.452203487E1,-1.436817825E1,2.861432362E1
3.916527167E0,-2.451475568E1,-1.369439424E1,-2.219285909E1,3.579151679E1
3.926575167E0,-2.441207389E1,-1.183621576E1,-2.778571852E1,3.883415390E1
3.936624167E0,-2.069592978E1,-1.009798356E1,-2.762724728E1,3.596603361E1
3.946672167E0,-1.283673985E1,-1.024154557E1,-2.026368957E1,2.608233617E1
3.956720167E0,-2.179462803E0,-1.185056366E1,-7.319518826E0,1.409827198E1
3.966768167E0,7.935663328E0,-1.357325630E1,5.670378309E0,1.671410270E1
3.976817167E0,1.383024611E1,-1.408185530E1,1.405742914E1,2.423191429E1
3.986865167E0,1.657668213E1,-1.299709506E1,1.896355883E1,2.834303148E1
3.996913167E0,1.998320097E1,-1.002575875E1,2.324013283E1,3.224822373E1
4.006961167E0,2.260832481E1,-6.458439138E0,2.660683331E1,3.550734241E1
4.017010167E0,2.362192561E1,-3.796383115E0,3.004140358E1,3.840434641E1
4.027058167E0,2.267222552E1,-1.097715921E0,3.467546466E1,4.144421117E1
4.037106167E0,2.132170582E1,1.367527355E0,3.726264474E1,4.295334636E1
4.047154167E0,1.950925023E1,3.836652889E0,3.483314301E1,4.010833582E1
4.057202167E0,1.708380062E1,6.677523783E0,2.805994358E1,3.352321585E1
4.067251167E0,1.552008090E1,9.234569076E0,2.018961002E1,2.708819909E1
4.077299167E0,1.446390419E1,1.148133655E1,1.352816140E1,2.289184930E1
4.087347167E0,1.314964190E1,1.270153819E1,9.787147912E0,2.073717480E1
4.097395167E0,1.053789415E1,1.219958279E1,8.761667324E0,1.834785676E1
4.107444167E0,6.608799704E0,1.066490152E1,8.331704600E0,1.506099796E1
4.117492167E0,2.317134034E0,8.934567736E0,8.201483599E0,1.234746711E1
4.127540167E0,-1.042067677E0,7.311033931E0,8.987590873E0,1.163245081E1
4.137588167E0,-2.887459462E0,6.159480357E0,9.124003490E0,1.138086377E1
4.147636167E0,-3.603083229E0,5.439999182E0,7.795190404E0,1.016566738E1
4.157685167E0,-3.783101457E0,4.994419715E0,5.170271802E0,8.123287230E0
4.167733167E0,-3.785459931E0,4.784647345E0,1.990346600E0,6.417478998E0
4.177781167E0,-3.768790397E0,4.716346311E0,-1.357044613E0,6.187832711E0
4.187829167E0,-3.382413695E0,4.437204329E0,-4.496886567E0,7.165995636E0
4.197878167E0,-3.136960739E0,4.178962635E0,-6.614733458E0,8.429647092E0
4.207926167E0,-3.038333998E0,3.752159746E0,-7.827258874E0,9.196529656E0
4.217974167E0,-2.989508286E0,3.063931062E0,-8.511400647E0,9.527264786E0
4.228022167E0,-3.065800124E0,2.318597300E0,-9.011390210E0,9.796947349E0
4.238071167E0,-3.468636445E0,1.630178581E0,-9.436938871E0,1.018551600E1
4.248119167E0,-3.873490056E0,9.047320765E-1,-9.928349984E0,1.069554107E1
4.258167167E0,-4.166919417E0,1.856971172E-1,-1.021221710E1,1.103118665E1
4.268215167E0,-4.258360806E0,-1.372680652E-1,-1.027018055E1,1.111886180E1
4.278263167E0,-3.918460406E0,-1.592026522E-1,-1.026644067E1,1.098997186E1
4.288312167E0,-3.504822524E0,-2.477911853E-1,-1.007732067E1,1.067228060E1
4.298360167E0,-3.399279989E0,-7.228006393E-2,-9.678563948E0,1.025840772E1
4.308408167E0,-3.372305029E0,2.597599972E-1,-9.181043079E0,9.784245933E0
4.318456167E0,-3.200062428E0,6.265321539E-1,-8.058564785E0,8.693296755E0
4.328505167E0,-3.136832685E0,7.925356295E-1,-5.959623111E0,6.781219628E0
4.338553167E0,-2.973850027E0,3.948044394E-1,-2.987015617E0,4.233428495E0
4.348601167E0,-2.255992624E0,2.789801605E-1,8.863373208E-1,2.439861983E0
4.358649167E0,1.550216737E-1,1.613745127E0,5.322109374E0,5.563546823E0
4.368698167E0,4.385724858E0,4.044411186E0,1.076727457E1,1.230959163E1
4.378746167E0,8.684175929E0,5.953010495E0,1.787975285E1,2.074942909E1
4.388794167E0,1.172252835E1,5.946822386E0,2.572931125E1,2.889255656E1
4.398842167E0,1.344991396E1,3.149451268E0,3.481100078E1,3.745163553E1
4.408890167E0,1.401092858E1,-5.836061358E-1,4.192943853E1,4.421226675E1
4.418939167E0,1.411886350E1,-2.165465446E0,4.342953937E1,4.571822872E1
4.428987167E0,1.501185144E1,-1.651649411E0,3.894716208E1,4.177277898E1
4.439035167E0,1.570867583E1,-7.634015121E-1,3.186718263E1,3.553677823E1
4.449083167E0,1.494176789E1,-6.750896984E-1,2.446687868E1,2.867647687E1
4.459132167E0,1.219372154E1,-9.021626638E-1,1.722991318E1,2.112748567E1
4.469180167E0,9.387833369E0,-1.011633212E0,1.061281920E1,1.420516626E1
4.479228167E0,7.381334420E0,-8.399914125E-1,4.781055400E0,8.834487769E0
4.489276167E0,5.943504676E0,-7.533026397E-1,-8.062140942E-3,5.991058145E0
4.499325167E0,4.854485319E0,-7.725206834E-1,-3.696772288E0,6.150523658E0
4.509373167E0,4.123005365E0,-9.906083786E-1,-6.718886402E0,7.945055864E0
4.519421167E0,3.691450152E0,-1.247311963E0,-8.992209588E0,9.800123705E0
4.529469167E0,3.534187533E0,-1.362333712E0,-1.054878517E1,1.120818019E1
4.539517167E0,2.835361648E0,-1.817666042E0,-1.147998935E1,1.196383471E1
4.549566167E0,1.338187781E0,-2.811427824E0,-1.200157853E1,1.239890157E1
4.559614167E0,-5.223873228E-2,-3.901301460E0,-1.223684593E1,1.284380318E1
4.569662167E0,-1.096461839E0,-5.039212895E0,-1.211876374E1,1.317043393E1
4.579710167E0,-1.901362941E0,-6.190049601E0,-1.174546113E1,1.341222398E1
4.589759167E0,-2.495891603E0,-6.800374369E0,-1.157255779E1,1.365278947E1
4.599807167E0,-3.014248440E0,-6.859237120E0,-1.261800136E1,1.467476697E1
4.609855167E0,-3.497119694E0,-6.976303055E0,-1.430359108E1,1.629390586E1
4.619903167E0,-3.832707188E0,-7.113983933E0,-1.522092916E1,1.723296540E1
4.629951167E0,-3.748862209E0,-7.086908401E0,-1.486496588E1,1.688921103E1
4.640000167E0,-3.383762940E0,-6.985929326E0,-1.312125951E1,1.524534392E1
4.650048167E0,-3.548174073E0,-7.261800960E0,-1.083085369E1,1.351409205E1
4.660096167E0,-4.331534617E0,-7.541097894E0,-8.560940596E0,1.220328044E1
4.670144167E0,-5.245224336E0,-7.697864084E0,-6.641996101E0,1.144052455E1
4.680193167E0,-5.454671016E0,-7.671905955E0,-4.997048038E0,1.065748873E1
4.690241167E0,-4.875769184E0,-7.063002060E0,-3.200865836E0,9.159948981E0
4.700289167E0,-3.698516220E0,-6.139084100E0,-1.791319073E0,7.387570631E0
4.710337167E0,-2.539411259E0,-4.921044760E0,-1.121305928E0,5.650010447E0
4.720386167E0,-1.763046909E0,-4.032419423E0,-9.172930652E-1,4.495571974E0
4.730434167E0,-1.981723419E0,-3.904648406E0,-7.227176088E-1,4.437998155E0
4.740482167E0,-2.668174257E0,-3.851056920E0,1.142031384E-1,4.686452350E0
4.750530167E0,-2.805554296E0,-4.277960381E0,1.830997109E0,5.433657180E0
4.760578167E0,-2.683473497E0,-4.950193130E0,3.722687148E0,6.750099379E0
4.770627167E0,-2.776248344E0,-5.348945171E0,5.151335594E0,7.928116277E0
4.780675167E0,-2.328277658E0,-5.467018581E0,5.835765635E0,8.328585088E0
4.790723167E0,-1.262277035E0,-5.220391796E0,5.945066468E0,8.011844302E0
4.800771167E0,-3.612705114E-1,-5.082463580E0,5.651517531E0,7.609310272E0
4.810820167E0,1.615176380E-2,-5.225893441E0,5.264510792E0,7.417903815E0
4.820868167E0,-4.384789011E-1,-5.937859774E0,4.436388935E0,7.425091867E0
4.830916167E0,-1.305057603E0,-7.031713609E0,3.191416735E0,7.831558747E0
4.840964167E0,-2.064099285E0,-8.059046010E0,1.773093887E0,8.506032588E0
4.851013167E0,-2.747715393E0,-8.960022420E0,4.141886902E-1,9.381017745E0
4.861061167E0,-2.880533727E0,-9.693095448E0,-6.900240719E-1,1.013556644E1
4.871109167E0,-2.603251452E0,-1.050317104E1,-1.559264134E0,1.093274095E1
4.881157167E0,-2.203930477E0,-1.177938433E1,-2.387274309E0,1.221925871E1
4.891205167E0,-2.337884925E0,-1.315597209E1,-2.561485668E0,1.360538557E1
4.901254167E0,-3.068831028E0,-1.488898741E1,-2.061170707E0,1.534105911E1
4.911302167E0,-4.359433437E0,-1.728646745E1,-1.438782840E0,1.788565662E1
4.921350167E0,-6.909282854E0,-1.947349216E1,-6.637139404E-1,2.067354839E1
4.931398167E0,-1.074695316E1,-2.037314476E1,-4.679421437E-1,2.303868485E1
4.941447167E0,-1.592898020E1,-1.842933615E1,-3.082580171E0,2.455351588E1
4.951495167E0,-2.173753407E1,-1.360701578E1,-9.164342262E0,2.723336988E1
4.961543167E0,-2.537592892E1,-9.699104632E0,-1.927848401E1,3.331171483E1
4.971591167E0,-2.620335204E1,-6.167825503E0,-2.961846512E1,4.002388294E1
4.981640167E0,-2.338140156E1,-3.644553729E0,-3.357243420E1,4.107409219E1
4.991688167E0,-1.564802734E1,-5.110981620E0,-2.568938646E1,3.051110403E1
5.001736167E0,-4.984832620E0,-1.005163502E1,-9.519939512E0,1.471438653E1
5.011784167E0,4.148950923E0,-1.428108397E1,8.064424864E0,1.691739051E1
5.021832167E0,9.662009895E0,-1.602096392E1,2.197402821E1,2.885972342E1
5.031881167E0,1.116522554E1,-1.533979020E1,2.855522379E1,3.428370211E1
5.041929167E0,1.244706151E1,-1.263537109E1,2.952027165E1,3.443876278E1
5.051977167E0,1.633182997E1,-9.731046216E0,2.915520893E1,3.480586357E1
5.062025167E0,2.319359835E1,-6.011800740E0,3.043984455E1,3.873846782E1
5.072074167E0,2.815315521E1,-7.671485540E-1,3.112173514E1,4.197321841E1
5.082122167E0,2.590652866E1,3.081676776E0,2.787043298E1,3.817598713E1
5.092170167E0,2.200908344E1,5.937770312E0,2.211906489E1,3.176334210E1
5.102218167E0,2.030669233E1,8.890473883E0,1.608245324E1,2.738699658E1
5.112266167E0,1.943434856E1,1.094488375E1,1.231070678E1,2.547622197E1
5.122315167E0,1.865694721E1,1.173232594E1,1.053818183E1,2.442913071E1
5.132363167E0,1.795494219E1,1.246779691E1,9.268689918E0,2.374309419E1
5.142411458E0,1.556579093E1,1.308299884E1,8.069359914E0,2.187631768E1
5.152459458E0,1.143651998E1,1.204179685E1,6.338482924E0,1.777569200E1
5.162508458E0,6.708197107E0,9.792698089E0,4.265891728E0,1.261327382E1
5.172556458E0,3.184707347E0,7.578373893E0,2.796764762E0,8.683087290E0
5.182604458E0,1.345972618E0,5.994554377E0,1.840982984E0,6.413699620E0
5.192652458E0,6.875357893E-1,4.820869092E0,1.257632591E0,5.029425812E0
5.202700458E0,1.271737245E-1,3.886486954E0,3.419668061E-1,3.903574682E0
5.212749458E0,-3.512235332E-1,3.285742556E0,-8.002990508E-1,3.399991277E0
5.222797458E0,-3.629825762E-1,2.772697915E0,-1.440903625E0,3.145761169E0
5.232845458E0,-1.732179165E-1,2.273802365E0,-1.416286263E0,2.684408393E0
5.242893458E0,4.745600224E-2,2.169803203E0,-1.444014344E0,2.606813273E0
5.252942458E0,-1.266957146E-1,2.077207281E0,-1.751218284E0,2.719854292E0
5.262990458E0,-6.123116523E-1,1.518423087E0,-2.090638043E0,2.655428714E0
5.273038458E0,-8.198454157E-1,7.818854378E-1,-2.238479043E0,2.508840324E0
5.283086458E0,-8.438464817E-1,2.439865483E-1,-2.295834966E0,2.458142492E0
5.293134458E0,-5.121298447E-1,-1.350397644E-1,-1.825108963E0,1.900404021E0
5.303183458E0,-1.609525046E-1,-5.593435530E-1,-7.271193928E-1,9.313825907E-1
5.313231458E0,-6.357548940E-1,-1.107847172E0,4.093559664E-1,1.341298606E0
5.323279458E0,-1.680613155E0,-1.832944086E0,1.777597412E0,3.056795243E0
5.333327458E0,-3.008270539E0,-2.682057009E0,2.833819152E0,4.926829855E0
5.343376458E0,-4.286882063E0,-3.318282604E0,3.106928562E0,6.248308759E0
5.353424458E0,-5.208491542E0,-3.714993966E0,2.513020436E0,6.873487908E0
5.363472458E0,-5.655632801E0,-3.923418261E0,1.221565211E0,6.990823613E0
5.373520458E0,-5.972291104E0,-3.875433962E0,-6.173624772E-1,7.146214792E0
5.383569458E0,-6.226147971E0,-3.700171859E0,-2.383164886E0,7.624674762E0
5.393617458E0,-6.306143144E0,-3.509759036E0,-3.612713301E0,8.070783557E0
5.403665458E0,-6.541267871E0,-3.229995202E0,-4.192940111E0,8.414380616E0
5.413713458E0,-7.023630418E0,-3.248792831E0,-4.225160024E0,8.816916487E0
5.423761458E0,-7.569370351E0,-3.389833227E0,-3.731675488E0,9.094599428E0
5.433810458E0,-7.973182572E0,-3.415225054E0,-2.943623430E0,9.159711862E0
5.443858458E0,-8.337482818E0,-3.547207236E0,-2.469428274E0,9.391186023E0
5.453906458E0,-8.863845078E0,-3.397524363E0,-2.355466626E0,9.780549289E0
5.463954458E0,-9.142942622E0,-2.975381120E0,-2.713123850E0,9.990362037E0
5.474003458E0,-9.135785630E0,-2.382996779E0,-3.181153117E0,9.962980873E0
5.484051458E0,-9.014848838E0,-1.710087215E0,-3.726594842E0,9.903504782E0
5.494099458E0,-8.899741720E0,-1.151035657E0,-4.318038366E0,9.958701778E0
5.504147458E0,-8.812776082E0,-8.188570169E-1,-4.673267827E0,1.000874524E1
5.514196458E0,-8.757656134E0,-5.610604417E-1,-4.536483911E0,9.878816531E0
5.524244458E0,-8.785346793E0,-3.208883976E-1,-3.927303443E0,9.628551291E0
5.534292458E0,-8.542780899E0,-9.886355281E-2,-3.168530148E0,9.111995544E0
5.544340458E0,-7.672161478E0,5.860895944E-1,-2.258954238E0,8.019254143E0
5.554388458E0,-6.815446152E0,1.818405131E0,-1.078950452E0,7.135897810E0
5.564437458E0,-6.630627944E0,3.136892326E0,-2.479956186E-1,7.339402035E0
5.574485458E0,-6.788547206E0,4.235925332E0,3.644242072E-1,8.010008838E0
5.584533458E0,-6.525229543E0,5.382466089E0,1.838736484E0,8.656241312E0
5.594581458E0,-6.047055942E0,5.948019896E0,5.135482623E0,9.915594184E0
5.604630458E0,-5.631025379E0,5.857806129E0,1.050000185E1,1.327676084E1
5.614678458E0,-3.621404602E0,6.069723843E0,1.736558963E1,1.874886189E1
5.624726458E0,1.642670280E0,7.419026742E0,2.463612049E1,2.578136451E1
5.634774458E0,8.141230381E0,8.984161481E0,3.058210497E1,3.289771928E1
5.644823458E0,1.264868170E1,9.278662929E0,3.403542843E1,3.747656765E1
5.654871458E0,1.471064149E1,7.768788471E0,3.692108783E1,4.049597231E1
5.664919458E0,1.658565526E1,5.344447492E0,4.129041739E1,4.481680095E1
5.674967458E0,1.955058186E1,2.770106136E0,4.513963945E1,4.926952190E1
5.685015458E0,2.280256931E1,4.145825732E-2,4.473250952E1,5.020912560E1
5.695064458E0,2.437804544E1,-2.584158831E0,3.818171010E1,4.537411115E1
5.705112458E0,2.384552080E1,-4.656787450E0,2.782365292E1,3.693846495E1
5.715160458E0,2.304605439E1,-5.924134020E0,1.785343219E1,2.974829454E1
5.725208458E0,2.269611023E1,-5.746072270E0,1.005975797E1,2.548194452E1
5.735257458E0,2.103763638E1,-5.454479227E0,3.917677172E0,2.208351609E1
5.745305458E0,1.855893501E1,-5.458948839E0,-1.051694241E0,1.937370001E1
5.755353458E0,1.561642781E1,-5.251232350E0,-4.768016109E0,1.715174150E1
5.765401458E0,1.288159501E1,-4.875523309E0,-7.192788613E0,1.553841773E1
5.775449458E0,1.050359438E1,-4.523857141E0,-8.828639578E0,1.444768684E1
5.785498458E0,8.212684525E0,-4.558080602E0,-9.904343655E0,1.364991975E1
5.795546458E0,5.894934779E0,-5.090152084E0,-1.068889498E1,1.322544443E1
5.805594458E0,3.835130274E0,-5.774444715E0,-1.101641624E1,1.301590807E1
5.815642458E0,2.016289526E0,-6.577212460E0,-1.109323696E1,1.305316259E1
5.825691458E0,5.413843417E-1,-7.646278778E0,-1.131339399E1,1.366570744E1
5.835739458E0,-6.898749679E-1,-8.832097621E0,-1.125270691E1,1.432149743E1
5.845787458E0,-1.910476265E0,-9.811167104E0,-1.155701589E1,1.527984083E1
5.855835458E0,-3.099120190E0,-1.029560892E1,-1.247631864E1,1.647005270E1
5.865884458E0,-4.225674871E0,-1.041921204E1,-1.365394554E1,1.768746834E1
5.875932458E0,-5.083632438E0,-1.000249736E1,-1.439140339E1,1.824844551E1
5.885980458E0,-5.503105842E0,-9.322607093E0,-1.420204014E1,1.785757882E1
5.896028458E0,-5.886842818E0,-9.056091589E0,-1.324001412E1,1.708700346E1
5.906076458E0,-6.311693906E0,-9.111978106E0,-1.177555324E1,1.617186690E1
5.916125458E0,-6.205148866E0,-9.271231703E0,-9.907965420E0,1.492070335E1
5.926173458E0,-6.174215341E0,-9.294252191E0,-8.074522421E0,1.377323387E1
5.936221458E0,-6.499062084E0,-9.242207294E0,-6.634253218E0,1.310227154E1
5.946269458E0,-6.988169979E0,-9.454150150E0,-5.785650904E0,1.310302374E1
5.956318458E0,-7.624818912E0,-9.522302957E0,-4.994980463E0,1.318187949E1
5.966366458E0,-7.679423720E0,-9.273147835E0,-4.057936088E0,1.270557613E1
5.976414458E0,-7.332744643E0,-8.604145673E0,-2.820098661E0,1.165132710E1
5.986462458E0,-6.949068478E0,-7.906741245E0,-1.249428948E0,1.060033879E1
5.996510458E0,-6.758515322E0,-7.442474077E0,2.599479121E-1,1.005661586E1
6.006559458E0,-6.947373955E0,-6.934801857E0,1.714141089E0,9.964725854E0
6.016607458E0,-6.914868699E0,-6.370265465E0,3.292300501E0,9.961673243E0
6.026655458E0,-6.470069250E0,-5.596510434E0,4.645617514E0,9.734705297E0
6.036703458E0,-5.655494807E0,-4.880524140E0,5.589455184E0,9.329852445E0
6.046752458E0,-5.127751434E0,-4.289084124E0,6.601284277E0,9.395053566E0
6.056800458E0,-5.620845376E0,-4.366722284E0,7.103004616E0,1.005558754E1
6.066848458E0,-6.749521134E0,-5.313450233E0,6.728078225E0,1.091127057E1
6.076896458E0,-8.019566195E0,-6.307890877E0,5.920057341E0,1.179618617E1
6.086945458E0,-8.942345703E0,-6.748537048E0,4.855724637E0,1.221009258E1
6.096993458E0,-9.544919402E0,-6.445373535E0,3.709500215E0,1.209994703E1
6.107041458E0,-9.892543974E0,-5.630485096E0,2.644749434E0,1.168586703E1
6.117089458E0,-1.031130402E1,-4.511037413E0,1.423202642E0,1.134451210E1
6.127138458E0,-1.107650925E1,-3.624914101E0,2.903317988E-2,1.165460863E1
6.137186458E0,-1.225745034E1,-3.488858163E0,-1.337153847E0,1.281425771E1
6.147233417E0,-1.318390424E1,-4.560629404E0,-1.798982727E0,1.406595217E1
6.157281417E0,-1.339733931E1,-6.523910412E0,-3.320543137E-1,1.490504504E1
6.167329417E0,-1.272280451E1,-8.529403639E0,2.917928426E0,1.559277997E1
6.177378417E0,-1.176711921E1,-1.002488985E1,5.976785858E0,1.657363811E1
6.187426417E0,-1.153355803E1,-1.056087838E1,6.286645603E0,1.685458472E1
6.197474417E0,-1.281669676E1,-9.178896566E0,2.965948392E0,1.604109435E1
6.207522417E0,-1.535043096E1,-6.432809622E0,-1.660783492E0,1.672647518E1
6.217571417E0,-1.792074768E1,-2.393682858E0,-7.798616288E0,1.969013283E1
6.227619417E0,-1.893058053E1,1.331910356E0,-1.493035997E1,2.414656318E1
6.237667417E0,-1.614867413E1,2.600211777E0,-1.987249914E1,2.573824003E1
6.247715417E0,-7.027793051E0,9.647671938E-1,-1.821788914E1,1.955024644E1
6.257764417E0,2.955490939E0,-1.277752275E0,-9.558759177E0,1.008649863E1
6.267812417E0,1.098962898E1,-4.799725268E0,2.848730721E0,1.232576872E1
6.277860417E0,1.645970741E1,-9.191413701E0,1.622281214E1,2.487134270E1
6.287908417E0,2.059231244E1,-1.206884490E1,2.709908232E1,3.611177940E1
6.297957417E0,2.333210486E1,-1.318290788E1,3.286162094E1,4.240356480E1
6.308005417E0,2.777631620E1,-1.277615568E1,3.323059662E1,4.515558046E1
6.318053417E0,3.307077818E1,-9.304516978E0,3.096621792E1,4.625102224E1
6.328101417E0,3.457681043E1,-6.996740828E0,2.512867122E1,4.331235758E1
6.338149417E0,2.791588456E1,-4.921818931E0,1.609367522E1,3.259643070E1
6.348198417E0,2.092913311E1,-2.377104540E0,8.366240594E0,2.266436014E1
6.358246417E0,1.961175776E1,-8.635108873E-1,3.201240642E0,1.989006373E1
6.368294417E0,1.906972906E1,1.207607176E0,-2.429284215E-2,1.910794263E1
6.378342417E0,1.692140707E1,2.793885008E0,-1.931668037E0,1.725894411E1
6.388391417E0,1.456958092E1,3.024722849E0,-2.751944684E0,1.513257532E1
6.398439417E0,1.308458695E1,2.949133261E0,-2.174042727E0,1.358787196E1
6.408487417E0,1.169852786E1,3.316370564E0,-1.103953730E0,1.220952832E1
6.418535417E0,9.125224389E0,3.406276183E0,-7.243606764E-1,9.767145743E0
6.428583417E0,5.904699630E0,2.769006275E0,-8.826436347E-1,6.581180232E0
6.438632417E0,3.440806330E0,2.181851099E0,-6.936896914E-1,4.132895813E0
6.448680417E0,2.436428928E0,2.276112746E0,-2.276911622E-1,3.341963258E0
6.458728417E0,1.846733136E0,2.946592062E0,-2.224766153E-1,3.484583748E0
6.468776417E0,8.964331234E-1,3.566165956E0,-6.356630927E-1,3.731648367E0
6.478825417E0,-7.138275021E-1,4.105813382E0,-1.539856641E0,4.442793232E0
6.488873417E0,-2.834227872E0,4.780730295E0,-2.493643933E0,6.091509653E0
6.498921417E0,-4.991550486E0,5.589767425E0,-3.147820480E0,8.128336232E0
6.508969417E0,-7.645463092E0,6.151422309E0,-3.869075700E0,1.054812064E1
6.519018417E0,-1.016876410E1,6.135402693E0,-4.072295680E0,1.255509943E1
6.529066417E0,-1.192733058E1,6.348826064E0,-3.026282009E0,1.384655878E1
6.539114417E0,-1.287293762E1,6.817019053E0,-8.677519459E-1,1.459237010E1
6.549162417E0,-1.377687740E1,7.455930859E0,1.510097237E0,1.573765070E1
6.559211417E0,-1.473438820E1,7.989075304E0,3.519419805E0,1.712640755E1
6.569259417E0,-1.566633263E1,8.138832437E0,4.356078597E0,1.818378377E1
6.579307417E0,-1.659336540E1,8.096508536E0,4.510142789E0,1.900617305E1
6.589355417E0,-1.703712346E1,8.233921028E0,5.185617235E0,1.962018495E1
6.599404417E0,-1.658425895E1,8.270125818E0,6.079151309E0,1.950355625E1
6.609452417E0,-1.574117582E1,8.207441327E0,7.289801522E0,1.919082895E1
6.619500417E0,-1.533390907E1,7.495070951E0,9.505862925E0,1.953628127E1
6.629548417E0,-1.495873885E1,6.445499250E0,1.223363464E1,2.037081601E1
6.639596417E0,-1.394743132E1,6.160857961E0,1.457719048E1,2.109458446E1
6.649645417E0,-1.240004990E1,6.977853152E0,1.563777132E1,2.114217501E1
6.659693417E0,-1.012742546E1,8.382306404E0,1.626886949E1,2.091659441E1
6.669741417E0,-7.827792140E0,9.679318238E0,1.826980540E1,2.210767561E1
6.679789417E0,-5.783419021E0,9.533163575E0,2.315124112E1,2.569648047E1
6.689838417E0,-4.270491440E0,7.025710273E0,3.164556614E1,3.269617040E1
6.699886417E0,-1.346507930E0,3.243730019E0,4.129241947E1,4.144151028E1
6.709934417E0,4.099292567E0,6.919738260E-1,4.893340652E1,4.910968643E1
6.719982417E0,1.179357669E1,1.093577554E0,5.365499106E1,5.494672355E1
6.730031417E0,1.941094450E1,2.225566929E0,5.544272813E1,5.878464099E1
6.740079417E0,2.584565213E1,-6.412992239E-2,5.459087301E1,6.040004356E1
6.750127417E0,3.003056050E1,-5.020726338E0,5.088808393E1,5.930125921E1
6.760175417E0,3.098019978E1,-1.033654645E1,4.430656559E1,5.504260827E1
6.770224417E0,3.076232317E1,-1.452482399E1,3.713832124E1,5.036413350E1
6.780272417E0,2.988366207E1,-1.718381724E1,3.022054823E1,4.584319327E1
6.790320417E0,2.803614307E1,-1.859288745E1,2.327741936E1,4.090915587E1
6.800368417E0,2.582979682E1,-1.911386267E1,1.654503115E1,3.614216659E1
6.810417417E0,2.463405057E1,-1.924394451E1,1.097034252E1,3.312875281E1
6.820465417E0,2.352546994E1,-1.822063616E1,5.739479535E0,3.030480067E1
6.830513417E0,2.133359437E1,-1.669690205E1,9.235185957E-1,2.710648767E1
6.840561417E0,1.844666145E1,-1.574589453E1,-2.412790389E0,2.437281417E1
6.850609417E0,1.450953586E1,-1.588230773E1,-4.596348290E0,2.199774414E1
6.860658417E0,1.006562740E1,-1.621639892E1,-6.471815228E0,2.015373021E1
6.870706417E0,5.682469182E0,-1.628950783E1,-8.166807271E0,1.908756826E1
6.880754417E0,1.410206913E0,-1.629399030E1,-9.682053566E0,1.900591920E1
6.890802417E0,-1.837795229E0,-1.639311230E1,-1.079259769E1,1.971273160E1
6.900851417E0,-3.505164878E0,-1.600233001E1,-1.127771428E1,1.988837817E1
6.910899417E0,-3.831052426E0,-1.540460424E1,-1.132839561E1,1.950157280E1
6.920947417E0,-3.628104926E0,-1.495597545E1,-1.116712823E1,1.901444451E1
6.930995417E0,-3.414979471E0,-1.444415229E1,-1.101096196E1,1.848071707E1
6.941044417E0,-3.278997793E0,-1.416410107E1,-1.072296203E1,1.806531208E1
6.951092417E0,-3.395624602E0,-1.401778502E1,-1.005970184E1,1.758482768E1
6.961140417E0,-4.399176377E0,-1.406103337E1,-9.336831030E0,1.744252923E1
6.971188417E0,-5.745691617E0,-1.425267703E1,-8.711524526E0,1.766472288E1
6.981237417E0,-6.962273245E0,-1.452556191E1,-8.369616192E0,1.815256656E1
6.991285417E0,-7.897137778E0,-1.472386438E1,-8.003198669E0,1.852587802E1
7.001333417E0,-8.507957221E0,-1.462654332E1,-7.537908822E0,1.852407015E1
7.011381417E0,-8.887594714E0,-1.410523247E1,-7.186057298E0,1.815451300E1
7.021430417E0,-8.936126604E0,-1.353004304E1,-7.034723171E0,1.767494705E1
7.031478417E0,-8.783540003E0,-1.340651242E1,-6.394652447E0,1.725620845E1
7.041526417E0,-9.129782878E0,-1.361466394E1,-5.206157334E0,1.719930475E1
7.051574417E0,-9.401992986E0,-1.369230210E1,-4.474439106E0,1.720166313E1
7.061623417E0,-9.375201044E0,-1.329881256E1,-3.839538198E0,1.671809988E1
7.071671417E0,-9.039994204E0,-1.292263895E1,-3.437991773E0,1.614112388E1
7.081719417E0,-8.619479996E0,-1.245543356E1,-3.381752668E0,1.551997138E1
7.091767417E0,-8.062192397E0,-1.180928348E1,-3.724008034E0,1.477587082E1
7.101816417E0,-7.114275709E0,-1.128458125E1,-4.331861184E0,1.402568052E1
7.111864417E0,-5.566424171E0,-1.090114891E1,-4.531941209E0,1.305214989E1
7.121912417E0,-3.319140390E0,-1.020133894E1,-4.028723983E0,1.145925940E1
7.131960417E0,-8.116169214E-1,-9.264729599E0,-3.149940973E0,9.819168228E0
7.142010292E0,7.636948961E-1,-8.767832043E0,-2.447531328E0,9.135016050E0
7.152058292E0,8.491566306E-1,-8.396954264E0,-2.273267345E0,8.740575056E0
7.162106292E0,5.229281902E-1,-8.123112198E0,-2.527560707E0,8.523319119E0
7.172154292E0,1.470575906E0,-7.806626388E0,-2.996639257E0,8.490338975E0
7.182202292E0,3.108050643E0,-6.758969066E0,-2.719102044E0,7.920679109E0
7.192251292E0,4.581127988E0,-5.341409279E0,-1.715188910E0,7.242876481E0
7.202299292E0,5.860834402E0,-4.583707779E0,-1.520579540E0,7.594202989E0
7.212347292E0,6.230991805E0,-4.409404619E0,-2.099932777E0,7.916932842E0
7.222395292E0,5.528343594E0,-4.790940703E0,-2.508145612E0,7.733465596E0
7.232444292E0,4.250049866E0,-5.444603865E0,-2.412632222E0,7.316244210E0
7.242492292E0,2.624155540E0,-5.686784427E0,-2.446250788E0,6.723827209E0
7.252540292E0,1.599729790E0,-5.585469722E0,-2.465921699E0,6.311685768E0
7.262588292E0,4.841541338E-1,-5.587665936E0,-1.532536804E0,5.814214039E0
7.272637292E0,-1.579847503E0,-6.439206476E0,8.516718104E-1,6.684657287E0
7.282685292E0,-4.897933640E0,-8.633326203E0,3.700507782E0,1.059329189E1
7.292733292E0,-9.298895465E0,-1.148923497E1,6.938938762E0,1.632852866E1
7.302781292E0,-1.422276384E1,-1.443180648E1,1.057248394E1,2.285479088E1
7.312830292E0,-1.880729550E1,-1.568502501E1,1.344362119E1,2.793680948E1
7.322878292E0,-2.212686039E1,-1.436809873E1,1.415123836E1,2.993823240E1
7.332926292E0,-2.289242465E1,-1.130174400E1,1.247935803E1,2.841701779E1
7.342974292E0,-2.224266801E1,-7.336046566E0,1.058201724E1,2.570083555E1
7.353023292E0,-2.194181239E1,-3.762184213E0,1.062647830E1,2.466818198E1
7.363071292E0,-2.254912058E1,-1.222486147E0,1.133323242E1,2.526656820E1
7.373119292E0,-2.348947682E1,3.059830409E-1,1.150613693E1,2.615798795E1
7.383167292E0,-2.420675710E1,1.921831266E0,1.112784663E1,2.671122415E1
7.393216292E0,-2.430745785E1,3.451986206E0,9.849543550E0,2.645339721E1
7.403264292E0,-2.363177934E1,5.365591024E0,7.290333619E0,2.530611637E1
7.413312292E0,-2.191332008E1,8.224856089E0,3.611119934E0,2.368294833E1
7.423360292E0,-1.914495466E1,1.122159036E1,-4.182536745E-1,2.219523181E1
7.433409292E0,-1.683400990E1,1.264792507E1,-2.913810232E0,2.125662692E1
7.443457292E0,-1.548403867E1,1.081434583E1,-2.613266855E0,1.906658577E1
7.453505292E0,-1.685515343E1,6.473926073E0,-5.673348695E-1,1.806460033E1
7.463553292E0,-2.502947204E1,1.422741297E0,2.592713892E0,2.520358761E1
7.473602292E0,-3.331342594E1,-1.638293347E0,3.567648225E0,3.354394829E1
7.483650292E0,-3.320364563E1,-2.551899742E0,1.171413408E1,3.530177351E1
7.493698292E0,-1.946480437E1,-3.777361538E0,2.800796651E1,3.431607870E1
7.503746292E0,-3.018829148E0,-1.038085548E1,4.290695734E1,4.424796580E1
7.513795292E0,4.525442614E0,-1.991627842E1,5.086261346E1,5.481006500E1
7.523843292E0,1.617046553E1,-2.590595329E1,5.739631094E1,6.501491276E1
7.533891292E0,3.623850726E1,-2.751868320E1,6.954257765E1,8.310642238E1
7.543939292E0,5.348234851E1,-2.131033883E1,8.055277714E1,9.901132283E1
7.553988292E0,4.959391268E1,-1.349953460E1,7.238388007E1,8.877623389E1
7.564036292E0,3.435300942E1,-1.377431866E1,5.421460234E1,6.564361521E1
7.574084292E0,2.706728984E1,-1.389415033E1,4.330870783E1,5.292758984E1
7.584132292E0,2.917436909E1,-1.207293795E1,3.578873008E1,4.772559945E1
7.594181292E0,3.234493757E1,-1.152710972E1,2.564149542E1,4.285505259E1
7.604229292E0,3.460231365E1,-1.244679254E1,1.551210530E1,3.991075250E1
7.614277292E0,3.488746598E1,-1.376682019E1,6.003198901E0,3.798287796E1
7.624325292E0,3.245301751E1,-1.439036493E1,-1.852000308E0,3.554871099E1
7.634374292E0,2.889441142E1,-1.155228081E1,-7.670863981E0,3.204971696E1
7.644422292E0,2.739339140E1,-6.314851402E0,-1.149744095E1,3.037213178E1
7.654470292E0,2.630780202E1,-2.795977142E0,-1.312477018E1,2.953265189E1
7.664518292E0,2.337935738E1,-1.696607336E0,-1.166460232E1,2.618273811E1
7.674567292E0,1.949722718E1,-2.586781307E0,-7.996829882E0,2.123164133E1
7.684615292E0,1.419263548E1,-4.675338326E0,-4.615023127E0,1.563931357E1
7.694663292E0,8.524855675E0,-6.710989738E0,-1.902351267E0,1.101496654E1
7.704711292E0,4.259681985E0,-8.022997341E0,4.386008155E-1,9.094270043E0
7.714760292E0,1.637595482E0,-8.049798639E0,2.808244016E0,8.681429118E0
7.724808292E0,8.154724292E-1,-6.515485743E0,4.846016797E0,8.160908561E0
7.734856292E0,9.874543905E-1,-3.868095999E0,5.498069635E0,6.794556832E0
7.744904292E0,1.368843709E0,-1.432528805E0,5.830069277E0,6.157562802E0
7.754953292E0,1.827833620E0,1.680181338E-1,7.242173612E0,7.471163527E0
7.765001292E0,1.936325490E0,1.003883897E0,9.439750797E0,9.688448502E0
7.775049292E0,1.313484903E0,8.673750928E-1,1.197884455E1,1.208181687E1
7.785097292E0,-9.353893206E-2,2.640444714E-1,1.444178300E1,1.444449948E1
7.795146292E0,-1.137552270E0,2.069576664E-1,1.569035299E1,1.573289654E1
7.805194292E0,-1.674212646E0,5.580617702E-1,1.487952895E1,1.498381803E1
7.815242292E0,-2.198579105E0,1.251854957E0,1.230571326E1,1.256309953E1
7.825290292E0,-3.055446752E0,1.902831469E0,8.873585955E0,9.575857672E0
7.835339292E0,-3.985920318E0,2.441524630E0,5.107648707E0,6.923631895E0
7.845387292E0,-4.594852572E0,2.891841658E0,1.309419041E0,5.584800494E0
7.855435292E0,-4.715882042E0,3.149509156E0,-1.940416056E0,5.993677154E0
7.865483292E0,-4.933950149E0,3.322809810E0,-4.333884906E0,7.359856486E0
7.875532292E0,-5.954182277E0,3.644474207E0,-6.435903384E0,9.495016124E0
7.885580292E0,-7.735013784E0,4.232379581E0,-8.731772849E0,1.240916324E1
7.895628292E0,-9.603550018E0,4.885550991E0,-1.094750564E1,1.536049026E1
7.905676292E0,-1.106159300E1,5.382350314E0,-1.201958912E1,1.719880976E1
7.915725292E0,-1.190783597E1,5.081399971E0,-1.159382177E1,1.737912214E1
7.925773292E0,-1.238432791E1,3.612264527E0,-9.897715251E0,1.625991390E1
7.935821292E0,-1.317231038E1,1.556888849E0,-7.893143545E0,1.543487540E1
7.945869292E0,-1.387180811E1,-7.124285558E-1,-6.615580135E0,1.538507443E1
7.955918292E0,-1.437869038E1,-2.607679841E0,-6.707346922E0,1.607903087E1
7.965966292E0,-1.413158821E1,-3.825375657E0,-7.732918727E0,1.655697183E1
7.976014292E0,-1.330704894E1,-4.489629588E0,-9.515261155E0,1.696391819E1
7.986062292E0,-1.196865519E1,-5.016884133E0,-1.156912080E1,1.738569497E1
7.996111292E0,-9.980645142E0,-5.306846387E0,-1.310066328E1,1.730327352E1
8.006159292E0,-8.146001709E0,-5.086325666E0,-1.385896295E1,1.686116564E1
8.016207292E0,-6.441055951E0,-4.746955316E0,-1.409072553E1,1.620399125E1
8.026255292E0,-4.873671496E0,-4.800523413E0,-1.369239449E1,1.530618717E1
8.036304292E0,-3.485914090E0,-5.174329770E0,-1.289834962E1,1.432803924E1
8.046352292E0,-2.426062399E0,-5.573380018E0,-1.182555629E1,1.329631998E1
8.056400292E0,-1.803195061E0,-5.871499139E0,-1.035412084E1,1.203884683E1
8.066448292E0,-1.278386114E0,-6.082080179E0,-8.497081400E0,1.052741007E1
8.076497292E0,-2.991698653E-1,-6.228488027E0,-6.584502769E0,9.068585469E0
8.086545292E0,1.683455486E0,-6.212404675E0,-4.692784079E0,7.965564427E0
8.096593292E0,3.823794570E0,-5.600304108E0,-3.195223272E0,7.496283264E0
8.106641292E0,4.576183582E0,-4.621462373E0,-2.400782547E0,6.932757567E0
8.116690292E0,4.476182746E0,-4.484650391E0,-2.428614124E0,6.785754760E0
8.126738292E0,3.764000358E0,-4.901413026E0,-2.765049464E0,6.770306262E0
8.136786292E0,2.281137259E0,-5.002650256E0,-3.340882677E0,6.433629911E0
8.146834083E0,1.121142936E0,-4.798571320E0,-4.173332643E0,6.457550119E0
8.156883083E0,3.661497205E-1,-4.438858214E0,-5.123794624E0,6.789020490E0
8.166931083E0,1.864440259E-1,-3.874937534E0,-6.189320453E0,7.304627980E0
8.176979083E0,7.706260394E-1,-2.977078859E0,-7.307591676E0,7.928288537E0
8.187027083E0,1.663585478E0,-1.533277061E0,-8.530435672E0,8.825349169E0
8.197076083E0,1.774067010E0,-2.212250188E-1,-9.843563018E0,1.000459830E1
8.207124083E0,1.117539590E0,-1.042909384E-1,-1.028226090E1,1.034333894E1
8.217172083E0,1.679019204E-1,-1.041386184E0,-8.694056554E0,8.757813403E0
8.227221083E0,-8.773968550E-1,-1.363375978E0,-5.802140636E0,6.024404972E0
8.237269083E0,-1.623511001E0,-1.224654880E0,-4.738837334E0,5.156757394E0
8.247317083E0,-1.329534340E0,-4.315100433E-1,-6.260560005E0,6.414707636E0
8.257365083E0,6.523883222E-1,2.195035985E0,-7.403649150E0,7.749697686E0
8.267414083E0,2.404224803E0,6.140301490E0,-7.268159807E0,9.813752915E0
8.277462083E0,3.330279921E0,8.446697697E0,-3.541712315E0,9.745829491E0
8.287510083E0,5.724119484E0,7.766236746E0,4.958999621E0,1.084765663E1
8.297558083E0,1.003503711E1,4.407570348E0,1.791936422E1,2.100552928E1
8.307607083E0,1.322594105E1,4.634160333E-1,3.279089536E1,3.536075634E1
8.317655083E0,1.583303090E1,-1.400355816E0,4.461707613E1,4.736379784E1
8.327703083E0,1.724224730E1,-1.571753860E-1,5.126669349E1,5.408875721E1
8.337751083E0,1.531378061E1,5.554383438E-1,5.062117959E1,5.288973635E1
8.347800083E0,1.202558486E1,-3.079653932E-1,4.342784602E1,4.506314840E1
8.357848083E0,1.076494972E1,-1.857473302E-1,3.420498599E1,3.585944382E1
8.367896083E0,1.217408308E1,1.312999438E0,2.637449302E1,2.907827623E1
8.377944083E0,1.471921701E1,3.552076212E0,2.249785453E1,2.711873989E1
8.387993083E0,1.692899909E1,5.347578676E0,2.283781165E1,2.892668749E1
8.398041083E0,1.749504816E1,5.586975964E0,2.641421667E1,3.217144468E1
8.408089083E0,1.552513290E1,4.070973625E0,2.951672356E1,3.359820751E1
8.418137083E0,1.228345876E1,1.643294470E0,2.952164458E1,3.201735896E1
8.428186083E0,9.319032106E0,-1.046537581E-1,2.523515604E1,2.690108570E1
8.438234083E0,7.277576163E0,-1.185116592E0,1.800035986E1,1.945200687E1
8.448282083E0,5.444327876E0,-1.835223769E0,1.044314119E1,1.191922607E1
8.458330083E0,3.099788819E0,-3.011077787E0,3.901634166E0,5.822201416E0
8.468379083E0,9.508186609E-2,-4.692771215E0,-1.642432591E0,4.972798714E0
8.478427083E0,-2.903179409E0,-6.210969769E0,-6.029834722E0,9.130361599E0
8.488475083E0,-4.827482293E0,-7.560763834E0,-8.989220492E0,1.269944172E1
8.498523083E0,-5.570877410E0,-9.016833383E0,-1.008550677E1,1.463063246E1
8.508572083E0,-5.556613712E0,-1.043412595E1,-9.525378007E0,1.518156008E1
8.518620083E0,-5.774464595E0,-1.153101566E1,-8.417297897E0,1.539998920E1
8.528668083E0,-6.938635876E0,-1.271421846E1,-7.959053360E0,1.652702482E1
8.538717083E0,-8.580396037E0,-1.395250437E1,-8.374577554E0,1.839644323E1
8.548765083E0,-1.071061037E1,-1.466712066E1,-9.142652600E0,2.033297075E1
8.558813083E0,-1.248871474E1,-1.530841988E1,-9.589810815E0,2.196087855E1
8.568861083E0,-1.348838513E1,-1.565754777E1,-9.589172884E0,2.278261557E1
8.578910083E0,-1.371295096E1,-1.568902918E1,-9.059495838E0,2.272146838E1
8.588958083E0,-1.320624178E1,-1.565696773E1,-8.522568828E0,2.218512204E1
8.599006083E0,-1.215288459E1,-1.525837941E1,-8.212679263E0,2.116503831E1
8.609054083E0,-1.119028086E1,-1.463049604E1,-8.603408339E0,2.032959506E1
8.619103083E0,-9.924465094E0,-1.390294454E1,-9.152101700E0,1.937905673E1
8.629151083E0,-8.483662040E0,-1.294049401E1,-9.565834308E0,1.819159402E1
8.639199083E0,-7.534315124E0,-1.214620824E1,-9.473895028E0,1.714791433E1
8.649248083E0,-7.137607269E0,-1.172706111E1,-9.108917674E0,1.647549031E1
8.659296083E0,-7.108278805E0,-1.138203562E1,-8.376225300E0,1.581896055E1
8.669344083E0,-6.986304717E0,-1.101112218E1,-7.402565076E0,1.499504034E1
8.679392083E0,-6.562485663E0,-1.060252225E1,-6.418000964E0,1.402392358E1
8.689441083E0,-6.310766537E0,-1.019021871E1,-5.775397811E0,1.330494462E1
8.699489083E0,-5.962912170E0,-9.867906146E0,-5.385185044E0,1.272525486E1
8.709537083E0,-5.297342323E0,-9.565040256E0,-4.865449433E0,1.196764091E1
8.719585083E0,-4.524449757E0,-9.162638383E0,-4.130231062E0,1.102195066E1
8.729634083E0,-3.616101177E0,-8.879002815E0,-3.300449765E0,1.013932184E1
8.739682083E0,-2.760991496E0,-8.703032615E0,-2.369724476E0,9.432997659E0
8.749730083E0,-2.580422753E0,-8.563555471E0,-1.774541073E0,9.118226797E0
8.759778083E0,-2.738596076E0,-8.314236628E0,-1.827363650E0,8.942354113E0
8.769827083E0,-3.205962561E0,-8.031086379E0,-2.808435804E0,9.091966566E0
8.779875083E0,-3.457722617E0,-7.648603631E0,-4.283926295E0,9.423853124E0
8.789923083E0,-3.262871757E0,-7.124942200E0,-5.498191842E0,9.572943486E0
8.799971083E0,-2.884790208E0,-6.591458032E0,-6.397559683E0,9.627985429E0
8.810020083E0,-2.720880182E0,-6.336694261E0,-6.976121791E0,9.809340363E0
8.820068083E0,-2.616261215E0,-6.239038158E0,-7.332049409E0,9.976440669E0
8.830116083E0,-2.276479367E0,-6.243593724E0,-7.220735380E0,9.813452009E0
8.840165083E0,-2.013161704E0,-6.351117003E0,-7.049585039E0,9.699801877E0
8.850213083E0,-1.848922334E0,-5.937975549E0,-7.198100808E0,9.512661177E0
8.860261083E0,-2.013109079E0,-5.382827446E0,-7.748783392E0,9.647335567E0
8.870309083E0,-2.012608265E0,-4.927511196E0,-8.749776426E0,1.024155975E1
8.880358083E0,-1.961883085E0,-4.238160138E0,-9.955476387E0,1.099647656E1
8.890406083E0,-1.691372616E0,-3.611559645E0,-1.092129608E1,1.162664235E1
8.900454083E0,-2.410161919E0,-2.479166812E0,-1.082204778E1,1.136098001E1
8.910502083E0,-4.953683918E0,-6.711802500E-1,-1.003832325E1,1.121416073E1
8.920551083E0,-1.281738322E1,6.945229197E-1,-1.217333347E1,1.769061114E1
8.930599083E0,-2.234725832E1,3.227978790E-1,-1.899137520E1,2.932876549E1
8.940647083E0,-2.077340539E1,1.287533790E0,-2.253377047E1,3.067511901E1
8.950696083E0,-8.783261968E-1,6.630092340E0,-1.023751800E1,1.222850589E1
8.960744083E0,2.585859552E1,9.280725242E0,2.523871114E1,3.730672009E1
8.970792083E0,4.522419487E1,5.568861290E0,6.591307056E1,8.012972537E1
8.980840083E0,4.331671618E1,-5.837283572E0,7.376081048E1,8.573837497E1
8.990889083E0,2.154593016E1,-4.833736182E0,6.166585426E1,6.550015033E1
9.000937083E0,1.328703743E1,-1.829938763E0,4.574395620E1,4.766973431E1
9.010985083E0,1.660984870E1,5.537512028E-1,3.653308531E1,4.013552088E1
9.021033083E0,1.607085237E1,2.296576393E0,3.400612453E1,3.768239727E1
9.031082083E0,1.450332729E1,2.186580619E0,3.181337656E1,3.503167945E1
9.041130083E0,6.986413475E0,1.150520079E0,2.526581416E1,2.623918891E1
9.051178083E0,4.602463308E-1,-1.125547206E0,1.546186252E1,1.550960592E1
9.061227083E0,-2.266468495E-1,-7.204135135E-1,7.249590805E0,7.288822351E0
9.071275083E0,2.120529448E0,1.171223900E0,1.256680664E0,2.729039548E0
9.081323083E0,3.971141188E0,2.647487977E0,-3.149151306E0,5.718068632E0
9.091371083E0,4.164300157E0,3.269771764E0,-6.123194876E0,8.094832837E0
9.101420083E0,3.831630131E0,3.234990771E0,-8.085096526E0,9.513955044E0
9.111468083E0,2.944515715E0,3.151738114E0,-9.558871443E0,1.048692754E1
9.121516083E0,1.311595375E0,2.765369599E0,-1.053535295E1,1.097092581E1
9.131564083E0,1.028348355E-1,1.977422207E0,-1.102309026E1,1.119952197E1
9.141613083E0,-4.159076254E-1,1.243689028E0,-1.076174194E1,1.084134821E1
9.151661083E0,-5.820637134E-1,5.317510539E-1,-9.924620630E0,9.955885294E0
9.161709083E0,-4.921788526E-1,-2.379351917E-1,-8.951320594E0,8.967998303E0
9.171758083E0,-3.893794658E-1,-8.174828482E-1,-8.035903900E0,8.086757451E0
9.181806083E0,-4.759294403E-1,-1.215349913E0,-7.738701038E0,7.847998344E0
9.191854083E0,-3.221792436E-1,-1.323111759E0,-7.876256787E0,7.993112357E0
9.201902083E0,-2.639007761E-1,-1.133883873E0,-8.194665161E0,8.276948312E0
9.211951083E0,-2.381888147E-1,-8.679618609E-1,-8.514525983E0,8.561964986E0
9.221999083E0,-3.015463199E-1,-8.148741129E-1,-8.649299626E0,8.692832336E0
9.232047083E0,-2.184997047E-1,-1.044830194E0,-8.363566078E0,8.431408530E0
9.242095083E0,-2.884164702E-1,-1.582509448E0,-7.622077737E0,7.789967217E0
9.252144083E0,-2.880825211E-1,-2.279292901E0,-6.335142410E0,6.738857249E0
9.262192083E0,-5.730014062E-1,-2.794439909E0,-4.753883974E0,5.544063298E0
9.272240083E0,-1.064547590E0,-3.454475074E0,-3.736225206E0,5.198657365E0
9.282289083E0,-9.282296243E-1,-3.814057494E0,-3.895160129E0,5.530001558E0
9.292337083E0,1.251311459E-2,-3.085633880E0,-4.081761153E0,5.116841518E0
9.302385083E0,1.093833808E0,-1.946527858E0,-3.558544695E0,4.201033616E0
9.312433083E0,1.751822155E0,-1.540590466E0,-2.401857850E0,3.348316141E0
9.322482083E0,1.745703336E0,-2.076764354E0,-5.065279198E-1,2.759891457E0
9.332530083E0,1.262245460E0,-3.177243961E0,1.936494328E0,3.929141519E0
9.342578083E0,9.415069699E-2,-4.425366056E0,3.667279517E0,5.748188249E0
9.352627083E0,-1.448916504E0,-5.415458418E0,3.705360094E0,6.719839458E0
9.362675083E0,-2.343994096E0,-5.440914856E0,2.303806475E0,6.356523191E0
9.372723083E0,-2.311065209E0,-4.933946056E0,-7.426548600E-3,5.448385196E0
9.382771083E0,-1.543228730E0,-4.330118129E0,-2.512656155E0,5.238789830E0
9.392820083E0,-8.804253472E-1,-3.284839454E0,-4.899719964E0,5.964274873E0
9.402868083E0,-1.018407869E0,-2.330768279E0,-7.317064750E0,7.746552259E0
9.412916083E0,-1.313203067E0,-1.964475594E0,-9.284114288E0,9.580106720E0
9.422964083E0,-1.431899206E0,-1.992433763E0,-1.008787489E1,1.038197223E1
9.433013083E0,-1.251725295E0,-2.271843840E0,-1.001013733E1,1.034074175E1
9.443061083E0,-9.776939258E-1,-2.729111307E0,-9.508636259E0,9.940729221E0
9.453109083E0,-1.175699359E0,-3.450953588E0,-8.798529341E0,9.523941842E0
9.463158083E0,-1.738846160E0,-4.351363403E0,-8.203241857E0,9.447281429E0
9.473206083E0,-2.448093684E0,-4.784355277E0,-7.895985292E0,9.551429308E0
9.483254083E0,-2.423701001E0,-4.930547655E0,-7.683239613E0,9.445464397E0
9.493302083E0,-1.890393418E0,-4.611234424E0,-7.234001543E0,8.784523238E0
9.503351083E0,-1.914433661E0,-3.916157480E0,-6.558744614E0,7.875181050E0
9.513399083E0,-1.815622733E0,-3.561532622E0,-5.858386173E0,7.092368369E0
9.523447083E0,-1.707230558E0,-3.306439068E0,-5.313825039E0,6.487211422E0
9.533496083E0,-1.640786892E0,-2.706719980E0,-4.721982735E0,5.684684303E0
9.543544083E0,-1.674008432E0,-2.148584827E0,-4.286766872E0,5.078886808E0
9.553592083E0,-1.994577645E0,-1.649954741E0,-4.059151139E0,4.814291080E0
9.563640083E0,-2.694735526E0,-1.144534284E0,-4.278474936E0,5.184294172E0
9.573689083E0,-3.332001926E0,-6.767941618E-1,-5.145532233E0,6.167397273E0
9.583737083E0,-3.560330142E0,2.143726668E-1,-5.872501937E0,6.870821301E0
9.593785083E0,-3.569320236E0,1.103316311E0,-5.645669146E0,6.769854794E0
9.603833083E0,-3.488989726E0,1.571588018E0,-3.787976573E0,5.384394555E0
9.613882083E0,-3.814701272E0,2.061110481E0,-7.411883783E-1,4.398804658E0
9.623930083E0,-4.362228699E0,2.068811264E0,2.106092234E0,5.267318460E0
9.633978083E0,-5.367634041E0,1.794206721E0,3.695685291E0,6.759346324E0
9.644027083E0,-5.979473823E0,2.274479911E0,3.958572598E0,7.523141836E0
9.654075083E0,-5.386204798E0,4.231271241E0,4.217131796E0,8.043572529E0
9.664123083E0,-5.054402207E0,7.000402939E0,5.394400840E0,1.018097163E1
9.674171083E0,-6.358567525E0,9.919409591E0,7.916337696E0,1.419487478E1
9.684220083E0,-8.140552104E0,1.282190429E1,1.213275028E1,1.943896725E1
9.694268083E0,-8.466249032E0,1.472272885E1,1.841717512E1,2.505251398E1
9.704316083E0,-6.586456908E0,1.501168538E1,2.797755163E1,3.242646308E1
9.714365083E0,-4.788235196E-1,1.603045395E1,4.156381916E1,4.455059807E1
9.724413083E0,7.871156845E0,1.792709658E1,5.686754022E1,6.014360342E1
9.734461083E0,1.303280985E1,1.625517414E1,6.652506822E1,6.971132993E1
9.744509083E0,1.238515353E1,1.229063797E1,6.674166780E1,6.898479565E1
9.754558083E0,1.259836641E1,9.742990909E0,6.426887094E1,6.621278185E1
9.764606083E0,1.811533834E1,8.709494957E0,6.418552239E1,6.725921551E1
9.774654083E0,2.395132266E1,7.795614912E0,6.316274147E1,6.799977484E1
9.784703083E0,2.557534470E1,4.845622987E0,6.231984428E1,6.753770288E1
9.794751083E0,2.488409155E1,-4.978608844E-1,5.995585241E1,6.491663975E1
9.804799083E0,2.531467349E1,-6.018767112E0,5.508250690E1,6.091913343E1
9.814847083E0,2.623418557E1,-1.056671274E1,4.774715615E1,5.549485410E1
9.824896083E0,2.669492044E1,-1.355013173E1,3.851867110E1,4.878435068E1
9.834944083E0,2.569858062E1,-1.505995766E1,2.948685131E1,4.191293083E1
9.844992083E0,2.254468371E1,-1.568103253E1,2.193270243E1,3.514542617E1
9.855040083E0,1.794138133E1,-1.670455723E1,1.554126770E1,2.902527171E1
9.865089083E0,1.380357345E1,-1.832813722E1,1.038434510E1,2.518519162E1
9.875137083E0,1.042807525E1,-2.037066087E1,7.001912105E0,2.393188983E1
9.885185083E0,7.059373863E0,-2.243058115E1,4.035771047E0,2.385902718E1
9.895234083E0,3.711106737E0,-2.494765078E1,1.581196163E0,2.527167929E1
9.905282083E0,1.453100917E0,-2.741932731E1,2.754243225E-1,2.745918555E1
9.915330083E0,6.451007912E-1,-2.869876358E1,-3.836621314E-2,2.870603871E1
9.925378083E0,2.024189115E-1,-2.930396677E1,2.491871350E-1,2.930572532E1
9.935427083E0,-6.242285702E-1,-2.965349228E1,-5.134425446E-2,2.966010623E1
9.945475083E0,-1.027451684E0,-2.995283931E1,-6.321454078E-1,2.997712207E1
9.955523083E0,-1.063210917E-1,-3.057266288E1,-8.694376981E-1,3.058520789E1
9.965572083E0,1.328817179E0,-3.091410285E1,-8.014439356E-1,3.095302607E1
9.975620083E0,2.284988674E0,-3.033430698E1,-9.135129134E-1,3.043395898E1
9.985668083E0,2.621776893E0,-2.863942604E1,-1.170308445E0,2.878298212E1
9.995716083E0,3.110730714E0,-2.680653677E1,-1.269960130E0,2.701628875E1
1.000576508E1,4.252256021E0,-2.498939054E1,-1.085979974E0,2.537184805E1
1.001581308E1,4.737700050E0,-2.301991032E1,-1.433800720E0,2.354607945E1
1.002586108E1,4.718080888E0,-2.162085639E1,-2.732762601E0,2.229775122E1
1.003591008E1,4.347779352E0,-2.042996099E1,-4.490541461E0,2.136472452E1
1.004595808E1,3.451407332E0,-1.909011128E1,-5.775917044E0,2.024119016E1
1.005600608E1,2.560159519E0,-1.796674304E1,-6.425049198E0,1.925200066E1
1.006605408E1,2.144046803E0,-1.692708120E1,-6.633636922E0,1.830650577E1
1.007610308E1,2.274670238E0,-1.600187861E1,-6.120534393E0,1.728280026E1
1.008615108E1,2.625653597E0,-1.524739483E1,-4.940160477E0,1.624137591E1
1.009619908E1,3.100032356E0,-1.464943985E1,-3.736837702E0,1.543308927E1
1.010624808E1,3.298305007E0,-1.406951651E1,-2.665693283E0,1.469476204E1
1.011629608E1,2.861391698E0,-1.368469254E1,-1.880792583E0,1.410658545E1
1.012634408E1,1.881664402E0,-1.357336155E1,-1.734036533E0,1.381244683E1
1.013639208E1,9.892991871E-1,-1.361536327E1,-1.778791706E0,1.376666008E1
1.014644142E1,4.844138964E-1,-1.375884692E1,-1.618940817E0,1.386223268E1
1.015648942E1,2.898906629E-1,-1.391639898E1,-1.267328006E0,1.397699243E1
1.016653742E1,1.017392135E-1,-1.396406899E1,-9.211845334E-1,1.399479027E1
1.017658642E1,1.539060615E-1,-1.406508198E1,-1.028991841E0,1.410351170E1
1.018663442E1,2.582635485E-1,-1.419266589E1,-1.568991562E0,1.428146350E1
1.019668242E1,5.198162655E-1,-1.439314118E1,-1.883480548E0,1.452515821E1
1.020673042E1,6.079131209E-1,-1.497872346E1,-1.559892125E0,1.507199318E1
1.021677942E1,6.255460940E-1,-1.553828679E1,-7.537815267E-1,1.556913135E1
1.022682742E1,1.040366868E0,-1.606587522E1,3.355459055E-1,1.610302148E1
1.023687542E1,1.663811181E0,-1.679633044E1,1.612497770E0,1.695538655E1
1.024692442E1,1.439686235E0,-1.738287166E1,2.822050461E0,1.766920747E1
1.025697242E1,8.080493890E-1,-1.768169713E1,3.577693741E0,1.805810759E1
1.026702042E1,1.348938033E-2,-1.751608059E1,3.745060349E0,1.791197193E1
1.027706942E1,-7.089051698E-1,-1.698112819E1,3.400860491E0,1.733283338E1
1.028711742E1,-1.473072813E0,-1.634973532E1,2.582139788E0,1.661779872E1
1.029716542E1,-2.230641435E0,-1.571863598E1,1.961527720E0,1.599683935E1
1.030721342E1,-2.813263265E0,-1.514795825E1,1.699377162E0,1.550041845E1
1.031726242E1,-3.037164847E0,-1.453826440E1,2.261606535E0,1.502332740E1
1.032731042E1,-2.784880881E0,-1.375736524E1,2.672085752E0,1.428848145E1
1.033735842E1,-3.103753231E0,-1.238473253E1,2.631785572E0,1.303614895E1
1.034740742E1,-3.696581961E0,-1.058898361E1,2.570404133E0,1.150644469E1
1.035745542E1,-4.033685053E0,-8.530737389E0,2.392847291E0,9.734978873E0
1.036750342E1,-4.282168622E0,-5.977841281E0,2.427875036E0,7.743780193E0
1.037755142E1,-4.939410279E0,-3.771488594E0,2.344404278E0,6.642148112E0
1.038760042E1,-6.522073216E0,-2.912392282E0,2.378942612E0,7.528534771E0
1.039764842E1,-8.355283497E0,-3.581371640E0,3.051663603E0,9.589037276E0
1.040769642E1,-1.015396246E1,-4.376884745E0,5.895596099E0,1.253068741E1
1.041774542E1,-1.175157848E1,-4.159784644E0,9.727199918E0,1.581207840E1
1.042779342E1,-1.267438723E1,-2.433591859E0,1.189278757E1,1.754995319E1
1.043784142E1,-1.200747954E1,1.196858386E0,1.323439378E1,1.790980775E1
1.044788942E1,-1.414227926E1,8.605572978E0,1.409896776E1,2.174490379E1
1.045793842E1,-1.899827842E1,1.529520518E1,1.032861879E1,2.648694491E1
1.046798642E1,-2.179708913E1,1.494280752E1,1.218809418E0,2.645536028E1
1.047803442E1,-1.933834898E1,1.497783234E1,-4.098461970E0,2.480130225E1
1.048808342E1,-5.465652671E0,1.191714590E1,6.322110720E0,1.455543917E1
1.049813142E1,7.256747797E0,5.452274827E0,2.998724667E1,3.133085783E1
1.050817942E1,1.333333452E1,-1.669089462E0,4.729005826E1,4.916211223E1
1.051822742E1,1.445680801E1,-9.551120374E0,5.415844568E1,5.686264536E1
1.052827642E1,1.406757757E1,-1.066096050E1,5.670530571E1,5.938892585E1
1.053832442E1,1.711290221E1,-7.563157099E0,5.426264774E1,5.739762806E1
1.054837242E1,2.123450746E1,-5.384913733E0,5.148362051E1,5.595055660E1
1.055842142E1,2.163559137E1,-3.849646572E0,4.529753766E1,5.034665342E1
1.056846942E1,1.961025620E1,-1.998292820E0,3.503128410E1,4.019634546E1
1.057851742E1,1.874140907E1,4.378215279E-1,2.347784086E1,3.004398630E1
1.058856542E1,1.995209378E1,2.392000029E0,1.139824644E1,2.310254818E1
1.059861442E1,2.050914632E1,4.614337541E0,1.804769424E0,2.109915606E1
1.060866242E1,2.031217702E1,6.096826272E0,-3.377186869E0,2.147466454E1
1.061871042E1,2.070466318E1,7.383334753E0,-4.958572190E0,2.253406638E1
1.062875942E1,1.946521719E1,8.568149044E0,-4.486231186E0,2.173554987E1
1.063880742E1,1.584480486E1,8.135187283E0,-3.661121814E0,1.818358947E1
1.064885542E1,1.244006591E1,5.557292574E0,-2.883681868E0,1.392674986E1
1.065890342E1,1.024010949E1,2.799594229E0,-1.698744201E0,1.075096749E1
1.066895242E1,8.577725614E0,7.149951911E-1,-6.016685504E-1,8.628476104E0
1.067900042E1,7.620766792E0,-7.309671530E-1,-3.284369338E-1,7.662784761E0
1.068904842E1,7.152539304E0,-1.452498654E0,-1.324397854E0,7.417722057E0
1.069909742E1,6.815676532E0,-1.721621432E0,-3.325424393E0,7.776623582E0
1.070914542E1,6.123580792E0,-1.729560782E0,-5.570202057E0,8.456759023E0
1.071919342E1,4.809423167E0,-1.682979523E0,-7.630176716E0,9.175105884E0
1.072924142E1,3.399085861E0,-1.997509731E0,-9.191540585E0,1.000141231E1
1.073929042E1,2.086378638E0,-2.680740216E0,-9.678596692E0,1.025741575E1
1.074933842E1,1.011376154E0,-3.545017746E0,-9.275583785E0,9.981306883E0
1.075938642E1,3.708987560E-1,-4.384666804E0,-8.668683146E0,9.721570673E0
1.076943542E1,-9.305068955E-2,-5.417345899E0,-8.091526124E0,9.738022902E0
1.077948342E1,-7.868785214E-1,-6.600149918E0,-7.645343224E0,1.013076649E1
1.078953142E1,-1.554843347E0,-7.429693233E0,-8.333266976E0,1.127214345E1
1.079958042E1,-1.952881004E0,-7.921088558E0,-9.728261772E0,1.269631700E1
1.080962842E1,-1.767183521E0,-8.015009460E0,-1.112714146E1,1.382666233E1
1.081967642E1,-1.625938472E0,-7.647058797E0,-1.180090793E1,1.415565654E1
1.082972442E1,-1.783617413E0,-7.690154530E0,-1.207361739E1,1.442539444E1
1.083977342E1,-1.736240349E0,-8.489350212E0,-1.184789967E1,1.467843057E1
1.084982142E1,-1.291274254E0,-9.594640031E0,-1.061997268E1,1.437039757E1
1.085986942E1,-7.033776507E-1,-1.130745088E1,-8.645734579E0,1.425138281E1
1.086991842E1,-2.209192094E-1,-1.317650284E1,-7.175310116E0,1.500513604E1
1.087996642E1,1.785312814E-1,-1.451456797E1,-6.826489788E0,1.604074561E1
1.089001442E1,1.352783454E0,-1.498969634E1,-6.860360370E0,1.654042212E1
1.090006242E1,3.407400310E0,-1.456262390E1,-6.483956387E0,1.630098408E1
1.091011142E1,5.478080928E0,-1.357531218E1,-5.208474001E0,1.553791083E1
1.092015942E1,6.122954555E0,-1.283089146E1,-3.649581749E0,1.467793566E1
1.093020742E1,5.679868340E0,-1.272199993E1,-1.300774518E0,1.399293397E1
1.094025642E1,4.415219091E0,-1.326939054E1,2.642128127E0,1.423206682E1
1.095030442E1,2.674176716E0,-1.363247339E1,6.689288381E0,1.541888877E1
1.096035242E1,1.581181837E0,-1.267876445E1,9.263744928E0,1.578189387E1
1.097040142E1,1.300308495E0,-9.963107003E0,1.031908198E1,1.440269962E1
1.098044942E1,2.017558957E0,-6.818865019E0,1.106033585E1,1.314908717E1
1.099049742E1,2.290298238E0,-3.508511240E0,1.216607708E1,1.286734427E1
1.100054542E1,1.583222516E0,-1.007093799E0,1.252680233E1,1.266655471E1
1.101059442E1,6.546069020E-1,3.736151897E-1,1.206074533E1,1.208427393E1
1.102064242E1,-4.324764419E-1,1.630783475E0,1.134549520E1,1.147025510E1
1.103069042E1,-1.569253517E0,2.921720345E0,1.095691498E1,1.144783788E1
1.104073942E1,-2.914357531E0,4.104181424E0,1.035878341E1,1.151703862E1
1.105078742E1,-5.142164236E0,5.277084060E0,9.401481355E0,1.194476123E1
1.106083542E1,-7.436936179E0,6.211242249E0,8.722867540E0,1.303748320E1
1.107088342E1,-9.258787658E0,7.089736699E0,8.150253219E0,1.422730273E1
1.108093242E1,-1.067939911E1,8.292053461E0,7.285573985E0,1.535862312E1
1.109098042E1,-1.229932343E1,9.759998120E0,5.748529855E0,1.672054172E1
1.110102842E1,-1.353077394E1,1.077683477E1,4.209854352E0,1.780294596E1
1.111107742E1,-1.441195285E1,1.128681839E1,3.119863188E0,1.856960421E1
1.112112542E1,-1.534100759E1,1.139556257E1,2.693608183E0,1.929924571E1
1.113117342E1,-1.645876250E1,1.075574737E1,3.244427007E0,1.992745019E1
1.114122242E1,-1.767006935E1,9.581345801E0,4.160819017E0,2.052671316E1
1.115126979E1,-1.878607595E1,8.644410185E0,4.489126727E0,2.116116102E1
1.116131779E1,-1.964237846E1,7.901491030E0,4.580996425E0,2.166199715E1
1.117136579E1,-1.952695560E1,7.519569615E0,5.354860799E0,2.159908462E1
1.118141479E1,-1.817270186E1,7.479329077E0,6.696571673E0,2.076129882E1
1.119146279E1,-1.603714200E1,7.872497027E0,8.913879118E0,1.996555468E1
1.120151079E1,-1.400580291E1,8.942608827E0,1.322096857E1,2.123503656E1
1.121155979E1,-1.210420769E1,1.077779722E1,2.016352910E1,2.586968617E1
1.122160779E1,-7.722886659E0,1.324403233E1,3.046197977E1,3.410248645E1
1.123165579E1,-5.919358599E-1,1.510842757E1,4.716723866E1,4.953143824E1
1.124170379E1,7.282224700E0,1.299804114E1,6.873300960E1,7.032927184E1
1.125175279E1,1.355944752E1,5.189992121E0,8.775215907E1,8.894512947E1
1.126180079E1,1.984468511E1,-4.265656962E0,9.905690386E1,1.011151698E2
1.127184879E1,2.959117733E1,-1.121799199E1,9.847685071E1,1.034367983E2
1.128189779E1,4.175593527E1,-1.484270319E1,8.659130433E1,9.727239050E1
1.129194579E1,5.095577130E1,-1.679270985E1,7.349680168E1,9.099596469E1
1.130199379E1,5.383034672E1,-1.981721957E1,6.039893103E1,8.329741466E1
1.131204179E1,5.242161681E1,-2.253521824E1,4.844323677E1,7.485057888E1
1.132209079E1,5.057533274E1,-2.439307746E1,3.952745848E1,6.866808927E1
1.133213879E1,4.795655664E1,-2.600943264E1,3.064550983E1,6.257371001E1
1.134218679E1,4.339713644E1,-2.795256531E1,2.105114813E1,5.574771920E1
1.135223579E1,3.622469848E1,-2.966284081E1,1.149490910E1,4.821043289E1
1.136228379E1,2.792723751E1,-3.032623315E1,2.930051458E0,4.133033043E1
1.137233179E1,2.005991176E1,-3.107381370E1,-2.383667162E0,3.706297110E1
1.138237979E1,1.374729867E1,-3.202817753E1,-3.945150315E0,3.507643921E1
1.139242879E1,9.494248016E0,-3.283211589E1,-3.875026411E0,3.439628481E1
1.140247679E1,6.677001627E0,-3.353373733E1,-4.163129252E0,3.444452838E1
1.141252479E1,4.126180696E0,-3.405918918E1,-5.455538743E0,3.473926651E1
1.142257379E1,2.437548670E0,-3.354894009E1,-7.916930019E0,3.455648717E1
1.143262179E1,2.460648095E0,-3.200852855E1,-1.042255782E1,3.375248732E1
1.144266979E1,3.570471553E0,-3.037266472E1,-1.215422243E1,3.290854224E1
1.145271879E1,4.648088255E0,-2.953231692E1,-1.279218289E1,3.251772455E1
1.146276679E1,4.748393146E0,-2.932685745E1,-1.182444999E1,3.197545032E1
1.147281479E1,4.218182541E0,-2.894836485E1,-1.071241950E1,3.115376097E1
1.148286379E1,3.083438542E0,-2.841561567E1,-1.124488450E1,3.071485365E1
1.149291179E1,1.058883904E0,-2.791569511E1,-1.407623145E1,3.128174484E1
1.150295979E1,-1.004934496E0,-2.696987289E1,-1.750762084E1,3.216987293E1
1.151300779E1,-2.242789464E0,-2.545156616E1,-2.012529533E1,3.252444983E1
1.152305679E1,-2.715289367E0,-2.378831632E1,-2.208857750E1,3.257548228E1
1.153310479E1,-2.712331553E0,-2.246493471E1,-2.333571376E1,3.250516221E1
1.154315279E1,-2.569972901E0,-2.164433646E1,-2.273625487E1,3.149633863E1
1.155320179E1,-2.658811403E0,-2.118645504E1,-2.019582444E1,2.939058489E1
1.156324979E1,-3.021968811E0,-2.119258760E1,-1.660406113E1,2.709156531E1
1.157329779E1,-3.336495219E0,-2.158879493E1,-1.277450793E1,2.530605303E1
1.158334579E1,-3.721701015E0,-2.154289195E1,-9.256145301E0,2.374075563E1
1.159339479E1,-3.829480110E0,-2.077935551E1,-6.442755151E0,2.208971769E1
1.160344279E1,-3.090085073E0,-1.954435340E1,-4.240330040E0,2.023637256E1
1.161349079E1,-1.460481273E0,-1.835043850E1,-2.834205653E0,1.862536766E1
1.162353979E1,1.014269283E0,-1.694636298E1,-1.703684514E0,1.706196066E1
1.163358779E1,2.564247600E0,-1.513344195E1,-6.127548712E-1,1.536137688E1
1.164363579E1,2.204628489E0,-1.414894509E1,8.006042755E-1,1.434203615E1
1.165368479E1,1.146790432E0,-1.446392758E1,2.938267965E0,1.480384233E1
1.166373279E1,-9.454553023E-2,-1.528894047E1,6.533981656E0,1.662689255E1
1.167378079E1,-8.897939023E-1,-1.535730494E1,1.032262306E1,1.852552550E1
1.168382879E1,5.308131605E-2,-1.398519498E1,1.356862764E1,1.948579360E1
1.169387779E1,2.660095451E0,-1.151216190E1,1.523898303E1,1.928296095E1
1.170392579E1,5.158505450E0,-8.811766267E0,1.578367222E1,1.879844972E1
1.171397379E1,5.376980231E0,-6.421067244E0,1.538423020E1,1.751617995E1
1.172402279E1,3.702475078E0,-5.062202393E0,1.304655666E1,1.447573333E1
1.173407079E1,2.188371036E0,-4.356768569E0,9.898839086E0,1.103437426E1
1.174411879E1,1.209366165E0,-3.064771307E0,6.682325517E0,7.450427102E0
1.175416779E1,4.361613572E-1,-1.677553892E0,3.194605222E0,3.634546232E0
1.176421579E1,-6.348608547E-1,-5.750800914E-1,-1.500383842E-1,8.696418418E-1
1.177426379E1,-1.796116422E0,4.711443713E-1,-2.601522138E0,3.196236639E0
1.178431179E1,-2.994086948E0,1.811623237E0,-4.452627237E0,5.663252133E0
1.179436079E1,-4.117256091E0,3.828299265E0,-6.012333421E0,8.231392722E0
1.180440879E1,-5.775279112E0,5.981984033E0,-7.459634485E0,1.117068165E1
1.181445679E1,-7.709590675E0,7.414330258E0,-8.970328723E0,1.395983091E1
1.182450579E1,-9.271319411E0,7.949010183E0,-1.021513720E1,1.592146835E1
1.183455379E1,-1.041467460E1,7.152003114E0,-1.047661533E1,1.641267999E1
1.184460179E1,-1.093928796E1,5.786116927E0,-1.030383829E1,1.610329947E1
1.185465079E1,-1.130616215E1,4.898750496E0,-1.061824074E1,1.626573378E1
1.186469879E1,-1.187661534E1,3.511485426E0,-1.111014945E1,1.663790680E1
1.187474679E1,-1.179068934E1,1.967950594E0,-1.103593425E1,1.626914347E1
1.188479479E1,-1.254682788E1,1.134484382E0,-9.809593034E0,1.596677989E1
1.189484379E1,-1.543597572E1,2.073354550E0,-9.077846155E0,1.802707509E1
1.190489179E1,-1.878887794E1,2.645635872E0,-1.049656720E1,2.168407817E1
1.191493979E1,-2.266649057E1,3.278135913E0,-1.218049865E1,2.593994058E1
1.192498879E1,-2.154012505E1,5.338000352E0,-1.359518453E1,2.602499332E1
1.193503679E1,-9.887294344E0,8.247450900E0,-7.728165525E0,1.501677656E1
1.194508479E1,7.702173482E0,7.851885592E0,1.043061177E1,1.515827318E1
1.195513379E1,2.346210249E1,2.118119225E0,3.635480838E1,4.332007358E1
1.196518179E1,3.233434008E1,-4.430046460E0,5.888296319E1,6.732264265E1
1.197522979E1,3.066223287E1,-1.029466050E1,6.667379332E1,7.410497470E1
1.198527779E1,2.024037087E1,-1.411502188E1,6.485112265E1,6.938713544E1
1.199532679E1,1.432284011E1,-1.614253338E1,5.970811290E1,6.348845469E1
1.200537479E1,1.233664036E1,-1.633354555E1,5.666248538E1,6.024628333E1
1.201542279E1,1.129324565E1,-1.708473383E1,5.012071406E1,5.414343456E1
1.202547179E1,1.117785319E1,-1.706627768E1,3.849124299E1,4.356349415E1
1.203551979E1,1.248684363E1,-1.407844755E1,2.587868422E1,3.199734748E1
1.204556779E1,1.483725826E1,-1.099417344E1,1.306259674E1,2.261962678E1
1.205561579E1,1.580181496E1,-7.311245601E0,1.311791257E0,1.746059748E1
1.206566479E1,1.490802828E1,-3.782490715E0,-5.904017844E0,1.647464628E1
1.207571279E1,1.409266213E1,-1.648776820E0,-7.331940651E0,1.597119108E1
1.208576079E1,1.299231437E1,-6.979230756E-1,-5.796657118E0,1.424389565E1
1.209580979E1,1.086417580E1,-7.069912300E-1,-4.325423400E0,1.171492381E1
1.210585779E1,8.053921511E0,-1.134369484E0,-4.153766690E0,9.132700780E0
1.211590579E1,5.530297149E0,-1.702727909E0,-4.889558088E0,7.575701102E0
1.212595479E1,3.999125962E0,-1.994536715E0,-5.715772583E0,7.255428409E0
1.213600279E1,3.341144924E0,-2.106938326E0,-6.262098407E0,7.403804088E0
1.214605129E1,3.263565529E0,-2.046640084E0,-6.716041147E0,7.742403005E0
1.215610029E1,3.236843169E0,-1.750456392E0,-7.314683179E0,8.188152495E0
1.216614829E1,3.239447226E0,-1.616815939E0,-7.890549721E0,8.681525615E0
1.217619629E1,2.975940991E0,-1.608125807E0,-8.343620056E0,9.003237697E0
1.218624429E1,2.296931612E0,-1.775613160E0,-8.758044389E0,9.226702468E0
1.219629329E1,1.695243181E0,-2.073336132E0,-9.172930067E0,9.555899653E0
1.220634129E1,1.057760361E0,-2.291462418E0,-9.607097524E0,9.933075044E0
1.221638929E1,6.144360919E-1,-2.502650984E0,-1.004177193E1,1.036715859E1
1.222643829E1,4.807996593E-1,-2.751522515E0,-1.045406496E1,1.082079103E1
1.223648629E1,5.478466114E-1,-2.958535292E0,-1.080206317E1,1.121327943E1
1.224653429E1,5.630415514E-1,-3.067575924E0,-1.090509111E1,1.134231237E1
1.225658229E1,4.320332229E-1,-3.113332725E0,-1.083110746E1,1.127796001E1
1.226663129E1,4.781956749E-1,-3.263287494E0,-1.064336272E1,1.114266065E1
1.227667929E1,4.949486786E-1,-3.253117139E0,-1.045416670E1,1.095980596E1
1.228672729E1,4.066879550E-1,-3.191336628E0,-1.037448552E1,1.086185870E1
1.229677629E1,1.888914694E-1,-3.121575252E0,-1.064294406E1,1.109288827E1
1.230682429E1,-1.279365668E-1,-3.126136373E0,-1.110891920E1,1.154110836E1
1.231687229E1,-4.293236232E-1,-3.212900867E0,-1.160992384E1,1.205393638E1
1.232692129E1,-5.943549992E-1,-3.289855780E0,-1.190462701E1,1.236513458E1
1.233696929E1,-8.047735595E-1,-3.294801063E0,-1.194115340E1,1.241348134E1
1.234701729E1,-1.263726998E0,-3.425274079E0,-1.188209418E1,1.243035280E1
1.235706529E1,-2.088877154E0,-3.880125183E0,-1.158201274E1,1.239200542E1
1.236711429E1,-3.027742936E0,-4.331033511E0,-1.028632588E1,1.156432353E1
1.237716229E1,-4.058186933E0,-4.731643505E0,-8.855360768E0,1.082934651E1
1.238721029E1,-4.937805219E0,-5.040886368E0,-7.783574325E0,1.050602137E1
1.239725929E1,-4.498739257E0,-5.319958184E0,-7.285439499E0,1.008058722E1
1.240730729E1,-4.222181744E0,-5.475651410E0,-7.924891587E0,1.051729451E1
1.241735529E1,-4.238177680E0,-4.851156499E0,-1.069307341E1,1.248349664E1
1.242740429E1,-3.045065313E0,-3.418437222E0,-1.195584862E1,1.280236119E1
1.243745229E1,1.573236641E0,-2.820209465E0,-1.026931048E1,1.076510069E1
1.244750029E1,6.636367571E0,-3.000422698E0,-1.309757595E0,7.399957829E0
1.245754829E1,8.759191028E0,-6.640717900E0,1.121572678E1,1.570398321E1
1.246759729E1,8.468394375E0,-1.175479328E1,2.290952424E1,2.710599877E1
1.247764529E1,5.295434377E0,-1.513526629E1,3.041086809E1,3.437933694E1
1.248769329E1,1.493495383E0,-1.596007570E1,3.150222984E1,3.534607516E1
1.249774229E1,-1.250158095E-1,-1.383575535E1,2.784593782E1,3.109405101E1
1.250779029E1,1.561402315E0,-1.024462588E1,2.366005179E1,2.582999008E1
1.251783829E1,3.897680571E0,-6.727490580E0,2.015274683E1,2.160056130E1
1.252788729E1,3.108023745E0,-3.830477352E0,1.503437024E1,1.582291556E1
1.253793529E1,1.054152118E0,-2.377253644E0,8.200844498E0,8.603279727E0
1.254798329E1,-2.056056440E-2,-9.563838214E-1,1.908838168E0,2.135124329E0
1.255803129E1,-1.084828073E-1,1.127536794E0,-2.232481554E0,2.503413995E0
1.256808029E1,1.193410867E-1,3.096880707E0,-4.024192976E0,5.079275688E0
1.257812829E1,2.097951740E-1,4.597601056E0,-4.318178700E0,6.310991742E0
1.258817629E1,-3.029734790E-2,5.820534223E0,-3.995013615E0,7.059721691E0
1.259822529E1,-4.220692751E-1,6.913432623E0,-3.365122309E0,7.700502663E0
1.260827329E1,-1.526191405E0,7.549288089E0,-1.974119407E0,7.950984737E0
1.261832129E1,-2.849275390E0,7.170118958E0,-3.703334033E-2,7.715591201E0
1.262837029E1,-3.894191538E0,6.415611207E0,7.133304888E-1,7.538808611E0
1.263841829E1,-4.929938375E0,6.370896379E0,5.148198563E-1,8.072029022E0
1.264846629E1,-5.493641539E0,6.549922335E0,-4.363999236E-1,8.559907993E0
1.265851429E1,-5.627016528E0,6.714723185E0,-1.703185161E0,8.924777988E0
1.266856329E1,-5.617614205E0,7.021174003E0,-2.926971145E0,9.456301276E0
1.267861129E1,-5.465909364E0,7.234117903E0,-4.065128163E0,9.936493043E0
1.268865929E1,-5.492892510E0,7.352943850E0,-5.067991721E0,1.048437845E1
1.269870829E1,-5.581659676E0,7.175223577E0,-5.419074336E0,1.058324736E1
1.270875629E1,-6.159020766E0,6.439363182E0,-5.027598571E0,1.023111345E1
1.271880429E1,-7.121312249E0,5.399597846E0,-4.611064562E0,1.005637417E1
1.272885329E1,-7.988781774E0,4.513506400E0,-4.046618217E0,1.002833452E1
1.273890129E1,-8.702508119E0,3.954603216E0,-3.243693767E0,1.009425992E1
1.274894929E1,-8.869892269E0,3.801690925E0,-2.487485061E0,9.965712452E0
1.275899729E1,-8.434577004E0,4.001141205E0,-2.228877915E0,9.597870438E0
1.276904629E1,-7.699828749E0,4.758589228E0,-2.444343134E0,9.375838499E0
1.277909429E1,-6.961276295E0,5.694043745E0,-3.015213815E0,9.485410702E0
1.278914229E1,-6.418093350E0,6.484069823E0,-3.585640107E0,9.802647535E0
1.279919129E1,-6.235102397E0,6.739429425E0,-3.746436199E0,9.916259127E0
1.280923929E1,-6.693547493E0,6.747951742E0,-3.622215026E0,1.017147346E1
1.281928729E1,-7.583542832E0,6.772957944E0,-2.436129550E0,1.045551569E1
1.282933629E1,-9.003284215E0,6.655987319E0,5.829007423E-1,1.121164872E1
1.283938429E1,-9.944608752E0,7.366131660E0,4.274428663E0,1.309297060E1
1.284943229E1,-1.099025814E1,9.360714567E0,7.509097252E0,1.627253185E1
1.285948129E1,-1.238742459E1,1.202657420E1,1.025700093E1,2.008215235E1
1.286952929E1,-1.322016400E1,1.440152609E1,1.516498417E1,2.474173468E1
1.287957729E1,-1.302396418E1,1.417954707E1,2.624048419E1,3.254606288E1
1.288962529E1,-1.075848971E1,1.049809683E1,4.290182582E1,4.545901227E1
1.289967429E1,-6.883634627E0,5.523612027E0,5.965155863E1,6.030093832E1
1.290972229E1,5.614572483E-1,1.276856774E0,7.083251085E1,7.084624331E1
1.291977029E1,7.633944662E0,-1.504490780E-1,7.272291567E1,7.312265182E1
1.292981929E1,1.265111531E1,-6.840382042E-1,6.705564457E1,6.824205518E1
1.293986729E1,1.615877461E1,-1.597544978E0,6.084213594E1,6.297160989E1
1.294991529E1,1.657504374E1,-5.213526580E0,5.754444197E1,6.011052932E1
1.295996329E1,1.532237251E1,-1.093326416E1,5.427393053E1,5.744537318E1
1.297001229E1,1.502439372E1,-1.678374607E1,4.959293035E1,5.446912225E1
1.298006029E1,1.628803784E1,-2.136489803E1,4.264762630E1,5.040415731E1
1.299010829E1,1.783703777E1,-2.378974538E1,3.394676827E1,4.512754123E1
1.300015729E1,1.840437322E1,-2.412877396E1,2.447955544E1,3.898932316E1
1.301020529E1,1.797722593E1,-2.243068874E1,1.494995516E1,3.240088901E1
1.302025329E1,1.649015620E1,-1.943382699E1,6.195520256E0,2.622943679E1
1.303030229E1,1.353941028E1,-1.593544488E1,-1.005503576E0,2.093478139E1
1.304035029E1,1.009346366E1,-1.338716749E1,-5.065401989E0,1.751435295E1
1.305039829E1,7.645498760E0,-1.245730818E1,-5.550668263E0,1.563483599E1
1.306044629E1,6.145065801E0,-1.272948671E1,-4.677598275E0,1.488897549E1
1.307049529E1,4.363635539E0,-1.444447038E1,-3.566798624E0,1.550503441E1
1.308054329E1,2.427166646E0,-1.745374226E1,-1.919919811E0,1.772597949E1
1.309059129E1,1.254761754E0,-2.002002439E1,-4.605053625E-1,2.006459242E1
1.310064029E1,1.620449837E0,-2.122321765E1,5.357601973E-1,2.129173230E1
1.311068829E1,2.480743221E0,-2.149069269E1,-3.994145304E-2,2.163343603E1
1.312073629E1,3.219677498E0,-2.144456517E1,-2.616020309E0,2.184214415E1
1.313078529E1,3.891442469E0,-2.111223750E1,-5.865388799E0,2.225472270E1
1.314083329E1,4.636861308E0,-2.050062108E1,-8.409915202E0,2.263852074E1
1.315088054E1,5.010205443E0,-2.026827144E1,-9.394623156E0,2.289462667E1
1.316092954E1,5.338763999E0,-2.037378094E1,-9.567642851E0,2.313294492E1
1.317097754E1,5.204181560E0,-2.060504768E1,-9.343260044E0,2.321525369E1
1.318102554E1,4.346791172E0,-2.076299968E1,-8.928131121E0,2.301539212E1
1.319107354E1,3.709765386E0,-2.037499015E1,-8.813145626E0,2.250720148E1
1.320112254E1,3.415396085E0,-1.949473861E1,-9.204645950E0,2.182739725E1
1.321117054E1,3.122693825E0,-1.837770290E1,-9.720130050E0,2.102313271E1
1.322121854E1,2.535685706E0,-1.712520826E1,-9.970941103E0,1.997804110E1
1.323126754E1,1.536865059E0,-1.618262306E1,-9.716892446E0,1.893824813E1
1.324131554E1,6.494173519E-1,-1.566519125E1,-9.273546615E0,1.821588940E1
1.325136354E1,-2.139483965E-1,-1.505046880E1,-8.971589967E0,1.752289392E1
1.326141254E1,-8.562045720E-1,-1.418229994E1,-8.735106347E0,1.667851315E1
1.327146054E1,-1.165179926E0,-1.326783050E1,-8.454932331E0,1.577589462E1
1.328150854E1,-9.643479484E-1,-1.210909245E1,-8.175648261E0,1.464244896E1
1.329155654E1,-4.087406201E-1,-1.074396757E1,-7.462882029E0,1.308795310E1
1.330160554E1,1.514364900E-1,-9.158688004E0,-6.468921441E0,1.121389511E1
1.331165354E1,6.606729497E-1,-7.684213175E0,-5.380035986E0,9.403638023E0
1.332170154E1,1.010337908E0,-6.596739237E0,-4.416910398E0,8.002927508E0
1.333175054E1,8.383167699E-1,-6.242755233E0,-3.976241422E0,7.448843115E0
1.334179854E1,4.310450435E-1,-6.410034717E0,-4.010629482E0,7.573605069E0
1.335184654E1,2.569919619E-1,-6.785406666E0,-3.953531713E0,7.857366067E0
1.336189554E1,6.803327505E-1,-7.004732217E0,-3.589146683E0,7.900069620E0
1.337194354E1,1.150783350E0,-7.056796995E0,-2.773088801E0,7.668944363E0
1.338199154E1,1.167660607E0,-7.352746214E0,-1.755584400E0,7.649077380E0
1.339204054E1,8.391767491E-1,-7.793808122E0,-7.646433145E-1,7.876061329E0
1.340208854E1,5.687179553E-1,-7.932503493E0,-1.859215772E-1,7.955037310E0
1.341213654E1,7.119413365E-1,-7.612998181E0,-2.117341107E-1,7.649145907E0
1.342218454E1,1.069046072E0,-7.086644692E0,-1.082448256E0,7.248109182E0
1.343223354E1,1.439280146E0,-6.602910388E0,-2.329022593E0,7.148027642E0
1.344228154E1,1.935361138E0,-6.243987826E0,-3.682486371E0,7.502913606E0
1.345232954E1,1.675576656E0,-6.247435929E0,-4.467736443E0,7.861213757E0
1.346237854E1,1.045306888E0,-6.676777094E0,-4.546542292E0,8.145125270E0
1.347242654E1,1.449315174E-1,-7.159870543E0,-4.826942010E0,8.636209846E0
1.348247454E1,-3.341321949E-2,-7.324802955E0,-5.956957950E0,9.441355982E0
1.349252354E1,3.275012696E-1,-6.725751033E0,-7.847111340E0,1.034021955E1
1.350257154E1,-5.187352250E-1,-5.603562176E0,-9.382746291E0,1.094097451E1
1.351261954E1,-1.799964328E0,-4.230667516E0,-9.320867547E0,1.039312229E1
1.352266854E1,-2.596500549E0,-3.736379573E0,-8.825354612E0,9.929211018E0
1.353271654E1,-3.156916701E0,-4.021668733E0,-7.664146700E0,9.212984700E0
1.354276454E1,-3.580517946E0,-4.640043363E0,-6.161380702E0,8.503688807E0
1.355281254E1,-4.036511305E0,-5.248780612E0,-4.489934812E0,8.000164751E0
1.356286154E1,-5.571622930E0,-4.686508847E0,-2.829577582E0,7.811072688E0
1.357290954E1,-8.347513717E0,-2.088127248E0,-1.761253860E0,8.783124491E0
1.358295754E1,-9.340985477E0,7.984314501E-1,-2.159260381E0,9.620494159E0
1.359300654E1,-1.177228113E1,2.856790524E0,-1.331164252E0,1.218687218E1
1.360305454E1,-1.272589418E1,6.945152598E0,2.395230031E-1,1.449968615E1
1.361310254E1,-8.911771197E0,1.277298532E1,-4.051670212E-1,1.557989024E1
1.362315154E1,1.108242517E-1,1.258659362E1,-3.445326228E0,1.305009172E1
1.363319954E1,1.065341408E1,7.690523490E0,-2.840763305E0,1.344281664E1
1.364324754E1,1.670066766E1,2.266309743E0,4.228007618E0,1.737597504E1
1.365329654E1,2.009374141E1,-5.191968480E0,1.748194455E1,2.713546325E1
1.366334454E1,1.800240287E1,-1.314041148E1,3.485550510E1,4.137225108E1
1.367339254E1,1.567476665E1,-1.764473805E1,3.915167430E1,4.571530040E1
1.368344054E1,1.016113349E1,-1.817580673E1,3.837844552E1,4.366364236E1
1.369348954E1,6.605037605E0,-1.430622115E1,3.311517258E1,3.667300288E1
1.370353754E1,6.901706032E0,-8.515649818E0,2.764105840E1,2.973512986E1
1.371358554E1,1.244260828E1,-2.158679460E0,2.131600361E1,2.477600467E1
1.372363454E1,1.392406351E1,3.904681443E0,1.937942216E1,2.418032434E1
1.373368254E1,1.072025828E1,6.179588347E0,1.549290889E1,1.982779553E1
1.374373054E1,9.039563849E0,5.384840058E0,1.068348397E1,1.499490069E1
1.375377954E1,6.917878261E0,5.551183403E0,7.805338247E0,1.181507435E1
1.376382754E1,6.155208381E0,6.105930972E0,5.900525887E0,1.048738237E1
1.377387554E1,6.754232821E0,5.905504206E0,3.853403408E0,9.764392390E0
1.378392354E1,7.430744562E0,5.647745492E0,2.229280204E0,9.595972286E0
1.379397254E1,7.488920850E0,5.862594414E0,2.061054640E0,9.731489865E0
1.380402054E1,6.026114724E0,6.201597267E0,2.614710533E0,9.033857343E0
1.381406854E1,3.459841940E0,6.077315283E0,2.750025628E0,7.514446637E0
1.382411754E1,1.096416377E0,5.420887558E0,2.452152091E0,6.049892616E0
1.383416554E1,-5.397830817E-1,5.080716432E0,1.657072849E0,5.371306700E0
1.384421354E1,-1.714273529E0,4.720542858E0,1.531502724E-1,5.024511281E0
1.385426254E1,-2.511670022E0,4.128221374E0,-1.176528202E0,4.973421018E0
1.386431054E1,-3.491615126E0,3.465277512E0,-2.088509656E0,5.344286389E0
1.387435854E1,-3.886635766E0,3.076104965E0,-2.447792407E0,5.528114235E0
1.388440754E1,-3.743250344E0,2.842019872E0,-2.762626963E0,5.451706872E0
1.389445554E1,-3.813390326E0,2.491255345E0,-3.325488712E0,5.639784939E0
1.390450354E1,-4.060842154E0,2.082524592E0,-4.188743564E0,6.194587987E0
1.391455254E1,-4.334867238E0,1.627574962E0,-5.146263719E0,6.922723777E0
1.392460054E1,-6.015730069E0,-6.614052404E-1,-6.165611748E0,8.639515807E0
1.393464854E1,-6.155196687E0,-9.704536841E-1,-6.449750760E0,8.968138685E0
1.394469654E1,-4.370232368E0,2.167389765E0,-5.506142886E0,7.356229932E0
1.395474554E1,-4.509031234E0,2.561071100E0,-4.864454822E0,7.110089209E0
1.396479354E1,-4.141795101E0,1.398065608E0,-3.926730416E0,5.876075719E0
1.397484154E1,-4.079604700E0,2.462038855E-1,-2.989461508E0,5.063661814E0
1.398489054E1,-4.449552771E0,-4.730061248E-1,-2.671734919E0,5.211566189E0
1.399493854E1,-4.542759143E0,-9.518732062E-1,-2.960334772E0,5.505116275E0
1.400498654E1,-5.070676178E0,-1.743245313E0,-3.227206957E0,6.258236642E0
1.401503554E1,-5.657047827E0,-3.206375082E0,-2.503114668E0,6.967683570E0
1.402508354E1,-5.591424526E0,-4.948266472E0,-6.758948600E-1,7.497079643E0
1.403513154E1,-5.677081558E0,-6.775779811E0,8.099878871E-1,8.876740811E0
1.404518054E1,-5.358205991E0,-8.433548478E0,5.719231796E-1,1.000810709E1
1.405522854E1,-4.625458653E0,-9.543102672E0,-7.928356647E-2,1.060527992E1
1.406527654E1,-4.065935956E0,-1.056109707E1,-6.382610106E-1,1.133472468E1
1.407532554E1,-3.092819231E0,-1.157051477E1,-1.572409844E0,1.207952050E1
1.408537354E1,-1.860561801E0,-1.301208147E1,-2.975153956E0,1.347692456E1
1.409542154E1,-5.071833926E-1,-1.458807566E1,-4.568558228E0,1.529512703E1
1.410547054E1,1.673500602E0,-1.540808801E1,-6.052465201E0,1.663857312E1
1.411551854E1,4.535234654E0,-1.538161533E1,-7.448572138E0,1.768173267E1
1.412556654E1,7.186456078E0,-1.506204277E1,-8.349760217E0,1.866088902E1
1.413561454E1,8.890080366E0,-1.475356473E1,-8.838927754E0,1.936047119E1
1.414566329E1,9.660416529E0,-1.402380532E1,-9.694920949E0,1.959546517E1
1.415571129E1,9.844336020E0,-1.274168985E1,-1.102496955E1,1.951439380E1
1.416575929E1,1.032396324E1,-1.103675754E1,-1.222748687E1,1.943979602E1
1.417580829E1,1.088977959E1,-8.918524146E0,-1.227775188E1,1.867807708E1
1.418585629E1,1.139196186E1,-6.815135665E0,-1.059950977E1,1.698742112E1
1.419590429E1,1.206530967E1,-4.821881537E0,-7.430276200E0,1.496767328E1
1.420595329E1,1.224010283E1,-3.458260269E0,-4.035730117E0,1.334416722E1
1.421600129E1,1.109445085E1,-1.969460492E0,-1.157042356E0,1.132715150E1
1.422604929E1,9.827988374E0,-5.153871824E-1,1.186953787E0,9.912811848E0
1.423609829E1,9.483914232E0,7.972001727E-1,3.670652776E0,1.020067885E1
1.424614629E1,9.241395700E0,1.760035593E0,6.523580629E0,1.144806639E1
1.425619429E1,8.461329185E0,2.600716977E0,9.159139409E0,1.273764716E1
1.426624229E1,6.655304364E0,3.337772250E0,1.161612773E1,1.379739915E1
1.427629129E1,3.579781782E0,3.705595737E0,1.317855053E1,1.414992832E1
1.428633929E1,1.744908553E-1,3.963882162E0,1.319592846E1,1.377952600E1
1.429638729E1,-2.978856997E0,4.790132033E0,1.192972092E1,1.319610531E1
1.430643629E1,-5.505790883E0,6.019333123E0,1.012402589E1,1.300161546E1
1.431648429E1,-7.392717780E0,6.706734719E0,8.421649979E0,1.305973794E1
1.432653229E1,-9.298213679E0,6.908385891E0,7.298735483E0,1.369138827E1
1.433658129E1,-1.136807715E1,6.695386443E0,6.732446680E0,1.481172562E1
1.434662929E1,-1.364074252E1,5.938771355E0,6.376239565E0,1.618626865E1
1.435667729E1,-1.594051325E1,5.234177776E0,6.465680330E0,1.798058958E1
1.436672629E1,-1.786718718E1,4.613487941E0,6.949483631E0,1.971841706E1
1.437677429E1,-1.898127121E1,3.995129683E0,7.157347469E0,2.067552516E1
1.438682229E1,-1.890686656E1,3.909100184E0,7.180887190E0,2.059892736E1
1.439687129E1,-1.748056928E1,4.593378197E0,6.928001545E0,1.935630727E1
1.440691929E1,-1.575513546E1,5.793747543E0,6.119958442E0,1.786744793E1
1.441696729E1,-1.426101048E1,6.745994094E0,4.964666158E0,1.653882603E1
1.442701629E1,-1.276112482E1,7.550136520E0,4.189290864E0,1.540782354E1
1.443706429E1,-1.231162480E1,7.811623419E0,4.646860632E0,1.530329635E1
1.444711229E1,-1.238248720E1,6.898592974E0,6.398748422E0,1.555186663E1
1.445716029E1,-1.173000810E1,5.961360319E0,9.343219113E0,1.613773994E1
1.446720929E1,-1.027331700E1,5.564741342E0,1.364291301E1,1.796208406E1
1.447725729E1,-8.726915567E0,5.797902575E0,1.891117245E1,2.161960159E1
1.448730529E1,-6.930196590E0,7.691269594E0,2.447597227E1,2.657548628E1
1.449735429E1,-4.692851029E0,9.669710678E0,3.098686327E1,3.279804644E1
1.450740229E1,-1.833275769E0,9.896737597E0,4.002951912E1,4.127552200E1
1.451745029E1,3.538302511E0,7.350223725E0,5.180817840E1,5.244647484E1
1.452749929E1,1.078796319E1,2.460817957E0,6.600755689E1,6.692856895E1
1.453754729E1,1.968669802E1,-2.663704938E0,7.775905234E1,8.025666093E1
1.454759529E1,2.931426723E1,-7.062808517E0,8.039769027E1,8.586616404E1
1.455764429E1,3.501184094E1,-1.124876354E1,7.353338654E1,8.221631604E1
1.456769229E1,3.716146686E1,-1.524473786E1,6.266529778E1,7.443330033E1
1.457774029E1,3.816506659E1,-1.796579229E1,5.441178916E1,6.884754752E1
1.458778929E1,3.862022555E1,-2.093038442E1,4.833648065E1,6.531476230E1
1.459783729E1,3.859431303E1,-2.374688295E1,4.217074611E1,6.190159348E1
1.460788529E1,3.695830652E1,-2.520570010E1,3.577541714E1,5.728109819E1
1.461793429E1,3.446229388E1,-2.619850119E1,2.934858805E1,5.230058111E1
1.462798229E1,3.220779698E1,-2.631524436E1,2.341799578E1,4.773087887E1
1.463803029E1,2.968347680E1,-2.510263240E1,1.716446880E1,4.249552844E1
1.464807829E1,2.674525327E1,-2.363869776E1,1.047910858E1,3.720091828E1
1.465812729E1,2.369580167E1,-2.249125654E1,4.457726009E0,3.297300348E1
1.466817529E1,1.914349285E1,-2.119670638E1,3.709707499E-2,2.856177614E1
1.467822329E1,1.344272890E1,-2.083552153E1,-2.658861689E0,2.493783197E1
1.468827229E1,8.087137204E0,-2.152597713E1,-4.503648287E0,2.343186564E1
1.469832029E1,4.198188280E0,-2.266494925E1,-5.687232909E0,2.374172124E1
1.470836829E1,1.982821233E0,-2.313488061E1,-6.478200388E0,2.410645891E1
1.471841729E1,1.604954862E0,-2.258005235E1,-7.542831008E0,2.386061491E1
1.472846529E1,2.086345309E0,-2.164051706E1,-9.572632281E0,2.375500167E1
1.473851329E1,2.410143355E0,-2.068603629E1,-1.211295629E1,2.409241786E1
1.474856229E1,2.849099388E0,-1.970069859E1,-1.377672303E1,2.420811826E1
1.475861029E1,4.157204268E0,-1.918917832E1,-1.398646500E1,2.410659899E1
1.476865829E1,5.584881492E0,-1.910644139E1,-1.343146834E1,2.401356586E1
1.477870729E1,6.413476388E0,-1.922476331E1,-1.257774211E1,2.385212360E1
1.478875529E1,6.178083858E0,-1.980333360E1,-1.198593021E1,2.395836524E1
1.479880329E1,5.501846352E0,-2.013513034E1,-1.179264348E1,2.397415749E1
1.480885229E1,5.010527624E0,-1.973785180E1,-1.197528243E1,2.362404644E1
1.481890029E1,5.263251886E0,-1.877019257E1,-1.279500593E1,2.331810727E1
1.482894829E1,6.487965238E0,-1.762655788E1,-1.338365215E1,2.306320404E1
1.483899729E1,7.562245519E0,-1.622630878E1,-1.294527469E1,2.209209793E1
1.484904529E1,7.929105091E0,-1.499612711E1,-1.218421865E1,2.088563430E1
1.485909329E1,7.644072624E0,-1.394052810E1,-1.143629194E1,1.958466092E1
1.486914229E1,7.114392654E0,-1.307923207E1,-1.110818829E1,1.857613365E1
1.487919029E1,6.472026898E0,-1.253618010E1,-1.106269813E1,1.792836394E1
1.488923829E1,5.745221500E0,-1.220038386E1,-1.076973157E1,1.725815907E1
1.489928629E1,5.538244100E0,-1.148727147E1,-1.012060293E1,1.628054536E1
1.490933529E1,5.580582619E0,-1.071339482E1,-9.464664613E0,1.534599645E1
1.491938329E1,5.367910030E0,-1.055648713E1,-8.796367625E0,1.475228667E1
1.492943129E1,4.947709233E0,-1.074111413E1,-8.086085874E0,1.432606520E1
1.493948029E1,4.397362863E0,-1.085402971E1,-7.334230421E0,1.381802073E1
1.494952829E1,4.292724893E0,-1.074319223E1,-6.737416813E0,1.338792186E1
1.495957629E1,4.747929754E0,-1.024039717E1,-6.320568810E0,1.293669824E1
1.496962529E1,5.187073776E0,-9.626612021E0,-5.854805923E0,1.240387624E1
1.497967329E1,5.551973947E0,-9.217470063E0,-5.575745217E0,1.211920393E1
1.498972129E1,5.401449074E0,-9.335117211E0,-5.304556033E0,1.201908400E1
1.499977029E1,4.627836716E0,-9.413457037E0,-4.714938886E0,1.150046498E1
1.500981829E1,4.108296987E0,-9.139192802E0,-4.720460705E0,1.107635764E1
1.501986629E1,3.784218860E0,-8.992265137E0,-5.209082696E0,1.105964227E1
1.502991529E1,3.496402826E0,-9.152744309E0,-5.422154649E0,1.119809458E1
1.503996329E1,3.778227510E0,-9.314637339E0,-5.099582473E0,1.127134479E1
1.505001129E1,4.667688999E0,-9.190775769E0,-4.799971143E0,1.137090158E1
1.506006029E1,5.424882376E0,-8.930615603E0,-4.707661150E0,1.146068573E1
1.507010829E1,5.610381199E0,-8.888086465E0,-5.073348940E0,1.167104655E1
1.508015629E1,5.254207413E0,-9.382999476E0,-5.181395545E0,1.193709489E1
1.509020529E1,4.714717862E0,-9.875030394E0,-4.818757662E0,1.195680623E1
1.510025329E1,4.155107456E0,-1.043241623E1,-4.016720234E0,1.192620089E1
1.511030129E1,3.701809080E0,-1.066333564E1,-3.304168010E0,1.176127729E1
1.512035029E1,3.556291763E0,-1.028545582E1,-3.241471240E0,1.135539291E1
1.513039829E1,3.686236775E0,-9.172683315E0,-3.755210531E0,1.057487905E1
1.514044629E1,3.296788824E0,-7.727156880E0,-4.842314340E0,9.696689031E0
1.515049546E1,2.373628955E0,-6.044147537E0,-6.203231564E0,8.980307105E0
1.516054346E1,9.240239413E-1,-4.383682133E0,-6.952366893E0,8.270785616E0
1.517059146E1,-1.465576244E0,-3.392560369E0,-7.060595931E0,7.969278166E0
1.518064046E1,-4.601111724E0,-2.640447053E0,-5.997529441E0,8.007031230E0
1.519068846E1,-7.898719450E0,-1.117632707E0,-3.381255947E0,8.664396320E0
1.520073646E1,-9.570507987E0,-3.796608818E-1,-1.868134530E0,9.758518952E0
1.521078546E1,-1.010982885E1,-1.668600635E0,-2.039032272E0,1.044751262E1
1.522083346E1,-1.056156836E1,-3.870160943E-1,-1.643807856E0,1.069572867E1
1.523088146E1,-9.618162795E0,2.801840145E0,-2.968086426E0,1.044839226E1
1.524093046E1,-7.200251999E0,3.435098278E0,-4.907917761E0,9.366492715E0
1.525097846E1,-3.436951845E0,4.433803296E-1,-4.047329239E0,5.328235925E0
1.526102646E1,1.862729218E0,-4.363700151E0,1.396955368E0,4.946020971E0
1.527107546E1,8.536449534E0,-9.728640672E0,1.116836433E1,1.709531461E1
1.528112346E1,1.628009264E1,-1.442646797E1,2.287717978E1,3.156785944E1
1.529117146E1,2.156214800E1,-1.652463840E1,3.437989258E1,4.381742707E1
1.530122046E1,2.155697438E1,-1.548896670E1,4.161515771E1,4.936023283E1
1.531126846E1,1.719144201E1,-1.230641025E1,4.137645098E1,4.646508482E1
1.532131646E1,1.205431807E1,-8.863145167E0,3.634158198E1,3.930104970E1
1.533136546E1,9.139355940E0,-4.904450946E0,3.103327613E1,3.272072269E1
1.534141346E1,8.161274051E0,-7.707160865E-1,2.625615239E1,2.750610725E1
1.535146146E1,8.421254708E0,2.503985319E0,2.141632078E1,2.314835349E1
1.536150946E1,9.699503996E0,4.984361919E0,1.774038914E1,2.082416021E1
1.537155846E1,1.027215574E1,7.178596251E0,1.542467656E1,1.987385405E1
1.538160646E1,1.007447658E1,8.501248711E0,1.390359358E1,1.915923335E1
1.539165446E1,9.136218908E0,8.719784303E0,1.369296050E1,1.862799778E1
1.540170346E1,7.351670911E0,7.949301374E0,1.494795307E1,1.845751225E1
1.541175146E1,5.268177581E0,6.814451541E0,1.650530517E1,1.861761380E1
1.542179946E1,3.485213886E0,5.885656418E0,1.711716366E1,1.843325688E1
1.543184846E1,1.890838976E0,5.349954985E0,1.642044686E1,1.737320827E1
1.544189646E1,5.997664511E-1,5.140360955E0,1.417888166E1,1.509383039E1
1.545194446E1,-3.133096021E-1,5.050242498E0,1.087524575E1,1.199475228E1
1.546199346E1,-1.195271451E0,5.153512512E0,7.333854445E0,9.042830645E0
1.547204146E1,-2.052988406E0,5.129040745E0,4.019801132E0,6.832321824E0
1.548208946E1,-2.599644597E0,4.891101168E0,1.331098178E0,5.696739860E0
1.549213846E1,-2.991490492E0,4.585662503E0,-5.753894091E-1,5.505305525E0
1.550218646E1,-3.205175526E0,4.187801286E0,-2.155298892E0,5.697029320E0
1.551223446E1,-3.175249184E0,3.680046035E0,-3.459604543E0,5.966054793E0
1.552228346E1,-2.991205148E0,3.187443260E0,-4.666794959E0,6.394222233E0
1.553233146E1,-2.620882269E0,2.673410731E0,-6.123305388E0,7.177117644E0
1.554237946E1,-2.465229096E0,1.940278354E0,-7.935951011E0,8.533542819E0
1.555242846E1,-2.607911391E0,9.072984926E-1,-9.761213171E0,1.014424344E1
1.556247646E1,-2.675926495E0,-4.691842385E-1,-1.149257256E1,1.180931583E1
1.557252446E1,-2.674667590E0,-2.503350311E0,-1.308326781E1,1.358648248E1
1.558257346E1,-2.438947616E0,-5.311621808E0,-1.425004111E1,1.540212528E1
1.559262146E1,-2.675137706E0,-8.342646495E0,-1.501447567E1,1.738363000E1
1.560266946E1,-3.227107555E0,-1.070602499E1,-1.537050679E1,1.900751623E1
1.561271846E1,-3.924207342E0,-1.151800444E1,-1.484018889E1,1.919101445E1
1.562276646E1,-4.218993550E0,-1.146437144E1,-1.410405250E1,1.865893931E1
1.563281446E1,-2.994715523E0,-1.102979117E1,-1.389143371E1,1.798878942E1
1.564286346E1,-9.701665127E-1,-9.548651095E0,-1.355354300E1,1.660772376E1
1.565291146E1,3.587471455E-1,-6.989096763E0,-1.270189721E1,1.450221934E1
1.566295946E1,4.100421372E-1,-4.709196628E0,-1.183360673E1,1.274279858E1
1.567300846E1,-1.532347646E-1,-3.365080209E0,-1.077517533E1,1.128944857E1
1.568305646E1,-1.313936308E0,-2.087939114E0,-9.494738597E0,9.809993853E0
1.569310446E1,-2.845659179E0,-7.039377408E-1,-8.437397701E0,8.932132134E0
1.570315346E1,-4.077678919E0,4.784250319E-1,-7.610637660E0,8.647436699E0
1.571320146E1,-4.783761199E0,1.463927476E0,-7.028853736E0,8.627412110E0
1.572325046E1,-4.508554978E0,2.337611129E0,-6.419294953E0,8.185282003E0
1.573329846E1,-3.405819515E0,3.735035298E0,-5.487613644E0,7.460830969E0
1.574334646E1,-2.366627791E0,5.286737813E0,-4.322756485E0,7.227499390E0
1.575339546E1,-1.796730379E0,5.857328997E0,-2.339395553E0,6.558148716E0
1.576344346E1,-2.341574811E0,5.074297943E0,7.042234504E-1,5.632708308E0
1.577349146E1,-4.208612111E0,3.609511658E0,4.243233767E0,6.981835225E0
1.578354046E1,-6.299948019E0,2.780175334E0,7.606078586E0,1.026017307E1
1.579358846E1,-7.688844169E0,2.927234269E0,9.756135449E0,1.276202194E1
1.580363646E1,-8.388192211E0,3.384975945E0,1.107217997E1,1.429730744E1
1.581368546E1,-8.215226310E0,4.044257404E0,1.203453460E1,1.512203638E1
1.582373346E1,-7.139623389E0,5.145553282E0,1.359946937E1,1.619865759E1
1.583378146E1,-7.272626495E0,6.565297004E0,1.497631675E1,1.789648804E1
1.584383046E1,-8.884709698E0,7.588626401E0,1.588639142E1,1.972061737E1
1.585387846E1,-1.093316125E1,7.893475083E0,1.874421807E1,2.309083530E1
1.586392646E1,-1.231986937E1,7.465294590E0,2.504747912E1,2.889439418E1
1.587397546E1,-1.124087916E1,5.917697990E0,3.383280604E1,3.613911009E1
1.588402346E1,-4.731311967E0,3.348103111E0,4.534686009E1,4.571578314E1
1.589407146E1,6.349164618E0,1.168911619E0,5.780772104E1,5.816709428E1
1.590412046E1,1.533925693E1,-1.393923002E0,6.734210200E1,6.908107213E1
1.591416846E1,1.807283843E1,-7.058438893E0,7.282889528E1,7.536907215E1
1.592421646E1,2.024740624E1,-1.491602494E1,7.394452064E1,7.810401649E1
1.593426546E1,2.597471655E1,-1.993744066E1,6.932365790E1,7.666783540E1
1.594431346E1,3.358254053E1,-2.196382131E1,6.016951435E1,7.232265850E1
1.595436146E1,3.873079873E1,-2.277584052E1,4.834864285E1,6.600306772E1
1.596441046E1,3.813569017E1,-2.258192814E1,3.552681692E1,5.680166427E1
1.597445846E1,3.378064887E1,-2.135762643E1,2.278427688E1,4.600438803E1
1.598450646E1,2.868506473E1,-1.961835576E1,1.099785484E1,3.645086600E1
1.599455546E1,2.403531440E1,-1.723358055E1,1.429423202E0,2.960972623E1
1.600460346E1,1.985260692E1,-1.441091672E1,-4.721396259E0,2.498183550E1
1.601465146E1,1.575193119E1,-1.226754030E1,-8.374563521E0,2.165061651E1
1.602470046E1,1.215738343E1,-1.092070902E1,-1.087741390E1,1.963114848E1
1.603474846E1,8.902344900E0,-1.097046649E1,-1.167380116E1,1.832704322E1
1.604479646E1,6.482174156E0,-1.141498351E1,-1.155847302E1,1.749053255E1
1.605484546E1,5.441841055E0,-1.197789379E1,-1.098728191E1,1.714070995E1
1.606489346E1,5.344966140E0,-1.295906828E1,-1.068498320E1,1.762597457E1
1.607494146E1,5.056664495E0,-1.408500461E1,-1.065713408E1,1.837203629E1
1.608499046E1,3.992911834E0,-1.488566151E1,-1.148734281E1,1.922200063E1
1.609503846E1,2.658186920E0,-1.567688569E1,-1.360598901E1,2.092734191E1
1.610508646E1,2.046500335E0,-1.671530441E1,-1.634706080E1,2.346946872E1
1.611513546E1,2.455199367E0,-1.787750518E1,-1.827732024E1,2.568450176E1
1.612518346E1,2.941000662E0,-1.866988476E1,-1.859410601E1,2.651329591E1
1.613523246E1,3.991569898E0,-1.844879101E1,-1.813370444E1,2.617483060E1
1.614528046E1,5.505684464E0,-1.806190648E1,-1.764055495E1,2.584055352E1
1.615532942E1,5.891700100E0,-1.746885848E1,-1.834675710E1,2.600916459E1
1.616537842E1,5.812434075E0,-1.626911040E1,-1.925438764E1,2.586889612E1
1.617542642E1,6.104304861E0,-1.429182297E1,-1.922533165E1,2.472108652E1
1.618547442E1,6.361926751E0,-1.205127050E1,-1.836478523E1,2.286859352E1
1.619552342E1,6.299342247E0,-1.044932754E1,-1.745874981E1,2.129972075E1
1.620557142E1,5.625555308E0,-9.261349323E0,-1.658691125E1,1.981275066E1
1.621561942E1,4.409309310E0,-8.242259742E0,-1.589213339E1,1.843737394E1
1.622566842E1,3.264657497E0,-7.610150002E0,-1.478434798E1,1.694548072E1
1.623571642E1,2.475377816E0,-7.258804847E0,-1.305621509E1,1.514207699E1
1.624576442E1,2.014219320E0,-7.382357098E0,-1.085831923E1,1.328380112E1
1.625581342E1,1.782921595E0,-7.702298613E0,-9.089828269E0,1.204695776E1
1.626586142E1,2.089180039E0,-7.829235232E0,-8.003694513E0,1.138950058E1
1.627590942E1,2.858950485E0,-7.738175958E0,-6.988745345E0,1.081182346E1
1.628595842E1,3.771462574E0,-7.563313805E0,-6.023008683E0,1.037806722E1
1.629600642E1,4.355707884E0,-7.436296493E0,-5.401363705E0,1.017081248E1
1.630605442E1,4.503220563E0,-7.298807403E0,-5.304848979E0,1.008429510E1
1.631610342E1,4.368539014E0,-7.288048527E0,-5.372277900E0,1.005291770E1
1.632615142E1,4.250311237E0,-7.489562289E0,-5.465878959E0,1.019973145E1
1.633620042E1,4.440538996E0,-7.620903617E0,-5.362909491E0,1.032266229E1
1.634624842E1,4.495282383E0,-7.983261418E0,-5.059405085E0,1.046602152E1
1.635629642E1,4.550678904E0,-8.628285318E0,-5.026959470E0,1.097389209E1
1.636634542E1,4.729671239E0,-9.007862585E0,-5.136109444E0,1.139697322E1
1.637639342E1,5.029108322E0,-9.183890673E0,-5.469780221E0,1.181330919E1
1.638644142E1,5.157408512E0,-9.311360559E0,-5.822287218E0,1.213257295E1
1.639649042E1,5.374202803E0,-9.383693540E0,-6.130510912E0,1.243056412E1
1.640653842E1,5.434659505E0,-9.491603320E0,-6.007899477E0,1.247881860E1
1.641658642E1,4.894831107E0,-9.728113838E0,-5.962445562E0,1.241556795E1
1.642663542E1,4.147012571E0,-1.007000580E1,-6.320972267E0,1.259195856E1
1.643668342E1,3.514573341E0,-1.037382829E1,-6.703066176E0,1.284132530E1
1.644673142E1,2.958820344E0,-1.039659267E1,-6.803824226E0,1.277246183E1
1.645678042E1,2.670513728E0,-1.031275764E1,-6.832692515E0,1.265584057E1
1.646682842E1,2.037617245E0,-9.878941011E0,-6.675024099E0,1.209550769E1
1.647687742E1,1.273109440E0,-8.945737088E0,-6.102891004E0,1.090377450E1
1.648692542E1,-1.424599542E-1,-7.721292123E0,-5.082315645E0,9.244921806E0
1.649697342E1,-2.017086356E0,-7.073781402E0,-4.040651718E0,8.392489917E0
1.650702242E1,-3.556352866E0,-6.962855043E0,-2.774897345E0,8.296327581E0
1.651707042E1,-5.000110225E0,-6.384511036E0,-6.534397978E-1,8.135727810E0
1.652711842E1,-7.290523068E0,-3.668764710E0,2.326189032E0,8.486619852E0
1.653716742E1,-8.900046360E0,-1.516633254E-1,5.700770382E0,1.057036470E1
1.654721542E1,-1.021262758E1,3.400423120E0,8.370551162E0,1.363549655E1
1.655726342E1,-1.093641113E1,5.784121272E0,6.047032553E0,1.377053921E1
1.656731242E1,-9.746619691E0,7.263156345E0,6.545735729E-1,1.217285924E1
1.657736042E1,-4.000173199E0,7.233247837E0,9.354738128E-1,8.318435619E0
1.658740942E1,3.991590071E0,4.883472306E0,8.093265671E0,1.026070379E1
1.659745742E1,1.112236896E1,7.092950329E-1,1.784967126E1,2.104331141E1
1.660750542E1,1.562764979E1,-5.411547800E0,2.833196774E1,3.280561970E1
1.661755442E1,1.531550905E1,-1.068856988E1,3.957314160E1,4.375892914E1
1.662760242E1,1.169394131E1,-1.079224335E1,4.875746614E1,5.128851026E1
1.663765042E1,9.685015181E0,-5.461172535E0,5.108571982E1,5.228168603E1
1.664769942E1,9.738980303E0,2.653022075E-1,4.516510992E1,4.620395304E1
1.665774742E1,1.060627734E1,4.593963211E0,3.575710600E1,3.757882710E1
