"Time (s)","Linear Acceleration x (m/s^2)","Linear Acceleration y (m/s^2)","Linear Acceleration z (m/s^2)","Absolute acceleration (m/s^2)"
4.251375009E-3,-5.494818583E-1,-3.818953952E-1,-5.813424593E-1,8.864160764E-1
1.429937501E-2,-3.495211163E-1,-1.944555885E-1,-2.060523713E-1,4.499284013E-1
2.434629167E-2,-3.528724480E-1,-9.226350814E-2,6.909771681E-2,3.712223241E-1
3.439429167E-2,-5.269034198E-1,-2.836659729E-2,2.864089018E-1,6.003848238E-1
4.444129167E-2,-5.755355895E-1,2.677147686E-3,6.364460349E-1,8.580862062E-1
5.448929167E-2,-5.991878691E-1,4.227829278E-3,8.543705928E-1,1.043548316E0
6.453629167E-2,-6.030812377E-1,-3.188779056E-3,6.360858464E-1,8.765399886E-1
7.458429167E-2,-5.420570639E-1,1.859326869E-2,1.549699259E-1,5.640808879E-1
8.463129167E-2,-4.860746518E-1,7.126586437E-2,-2.820597428E-1,5.664848533E-1
9.467929167E-2,-3.974975207E-1,1.991634741E-1,-5.072874731E-1,6.745449939E-1
1.047272917E-1,-3.960515043E-1,3.389443803E-1,-5.049474174E-1,7.257492551E-1
1.147742917E-1,-4.156712517E-1,4.696834445E-1,-3.856034070E-1,7.362575059E-1
1.248222917E-1,-4.331149578E-1,5.452508131E-1,-2.399486804E-1,7.365204580E-1
1.348692917E-1,-4.556249839E-1,5.458878672E-1,-2.061699003E-1,7.403335176E-1
1.449172917E-1,-4.643991695E-1,5.095395282E-1,-2.371735919E-1,7.290736809E-1
1.549642917E-1,-4.326227684E-1,4.717977977E-1,-2.776363242E-1,6.977374507E-1
1.650122917E-1,-3.165279096E-1,4.718147546E-1,-3.077746278E-1,6.461612042E-1
1.750592917E-1,-1.087777993E-1,5.246604279E-1,-3.531496060E-1,6.417287732E-1
1.851072917E-1,-2.899137229E-2,5.656333297E-1,-4.476166373E-1,7.219018059E-1
1.951542917E-1,-1.408418834E-2,5.565666372E-1,-5.558199477E-1,7.867023581E-1
2.052022917E-1,-2.956659213E-2,5.738542226E-1,-6.049476689E-1,8.343527637E-1
2.152502917E-1,-8.690117285E-2,5.586476612E-1,-4.704634631E-1,7.355099546E-1
2.252972917E-1,-8.196509957E-2,5.609383079E-1,-4.399117613E-1,7.175600467E-1
2.353452917E-1,4.485983849E-3,5.783290967E-1,-4.425927097E-1,7.282671040E-1
2.453922917E-1,2.279858619E-2,4.956097063E-1,-3.371282351E-1,5.998368140E-1
2.554402917E-1,-6.354403138E-2,4.132122052E-1,-2.632176751E-1,4.940300749E-1
2.654872917E-1,-1.575073251E-1,3.593853691E-1,-1.672087330E-1,4.265268589E-1
2.755352917E-1,-2.536330654E-1,3.183998957E-1,-1.975060809E-1,4.524564923E-1
2.855822917E-1,-2.622235022E-1,2.978969264E-1,-2.976647919E-1,4.960928061E-1
2.956302917E-1,-2.061298469E-1,3.677281764E-1,-2.102705526E-1,4.710915312E-1
3.056772917E-1,-4.255618170E-2,3.674884406E-1,-4.778870881E-2,3.730181540E-1
3.157252917E-1,2.410923958E-2,1.760795438E-1,9.720703661E-2,2.025696649E-1
3.257722917E-1,3.291573107E-2,-1.464245126E-1,1.546647012E-1,2.155104476E-1
3.358202917E-1,5.922673970E-2,-2.808411831E-1,1.272973931E-1,3.139812145E-1
3.458672917E-1,1.539858395E-1,-2.538966286E-1,9.264679313E-2,3.110603881E-1
3.559152917E-1,3.092096807E-1,-1.752901697E-1,3.010088146E-2,3.567118351E-1
3.659632917E-1,4.723354492E-1,-1.769537026E-1,-1.042891842E-1,5.150627373E-1
3.760102917E-1,6.210908812E-1,-2.452602911E-1,-2.722223872E-1,7.211182435E-1
3.860582917E-1,7.760007269E-1,-3.062254080E-1,-5.295899230E-1,9.881379535E-1
3.961052917E-1,8.950616589E-1,-3.554186180E-1,-7.526769876E-1,1.222284916E0
4.061532917E-1,9.734258238E-1,-3.995852691E-1,-9.598660576E-1,1.424278438E0
4.162002917E-1,1.073905839E0,-4.475277597E-1,-1.212349999E0,1.680281931E0
4.262482917E-1,1.200986228E0,-4.908372089E-1,-1.493489390E0,1.978332541E0
4.362952917E-1,1.251246262E0,-5.329047096E-1,-1.719859082E0,2.192605733E0
4.463432917E-1,1.293670151E0,-6.640326136E-1,-1.847897902E0,2.351435397E0
4.563902917E-1,1.363739675E0,-8.617825234E-1,-2.166070048E0,2.700798858E0
4.664382917E-1,1.398575924E0,-9.426845992E-1,-2.406479489E0,2.938675280E0
4.764862917E-1,1.446710495E0,-7.482331038E-1,-2.534820026E0,3.012994623E0
4.865332917E-1,1.393908676E0,-4.728973666E-1,-2.837469569E0,3.196536699E0
4.965812917E-1,4.560342159E-1,-4.225130787E-1,-1.868793511E0,1.969485642E0
5.066282917E-1,-1.352709487E-1,-5.169210532E-1,-1.301169205E0,1.406608298E0
5.166762917E-1,-3.442124292E-1,-6.029866590E-1,7.173919648E-1,9.983618274E-1
5.267232917E-1,-8.967706539E-1,-6.174979864E-1,2.132498260E0,2.394378875E0
5.367712917E-1,-3.413602744E0,-7.200103480E-1,1.367707011E0,3.747228450E0
5.468182917E-1,-4.764112508E0,-4.621998855E-1,5.234395292E0,7.092904257E0
5.568662917E-1,-6.193174206E-1,-2.981970347E-1,3.124015296E0,3.198741488E0
5.669132917E-1,2.202003235E0,3.871226598E-1,6.060381746E-1,2.316455152E0
5.769612917E-1,2.327172826E0,6.865215898E-1,-4.222215950E-2,2.426690744E0
5.870082917E-1,1.642624526E0,2.821701090E-1,-1.527896161E0,2.261040022E0
5.970562917E-1,6.961932499E-1,4.302849054E-1,-2.313926836E0,2.454401667E0
6.071042917E-1,-4.663607642E-2,7.517493269E-1,-2.103700138E0,2.234470014E0
6.171512917E-1,5.460845529E-1,9.377764463E-1,-1.975101154E0,2.253587711E0
6.271992917E-1,1.277539437E0,1.252783641E0,-1.799039152E0,2.537344229E0
6.372462917E-1,6.693920253E-1,1.449449477E0,-1.782547081E0,2.393003043E0
6.472942917E-1,6.315467260E-1,9.159170692E-1,-5.901045120E-1,1.259356455E0
6.573412917E-1,1.270099878E0,5.665659606E-1,-6.055107558E-1,1.516836828E0
6.673892917E-1,1.390223176E0,8.377628924E-1,-3.361318696E-1,1.657574064E0
6.774362917E-1,1.371321175E0,6.762205499E-1,6.269384623E-2,1.530270079E0
6.874842917E-1,1.193832379E0,9.817928240E-2,3.865752143E-1,1.258695879E0
6.975312917E-1,3.496907587E-1,-7.668078075E-1,1.310368044E0,1.557993021E0
7.075792917E-1,-3.106345010E-1,-1.542065573E0,2.221233265E0,2.721826086E0
7.176262917E-1,7.426181687E-1,-1.261159632E0,2.509945970E0,2.905483460E0
7.276742917E-1,1.795675103E0,1.480468225E-1,2.215901774E0,2.855974021E0
7.377222917E-1,1.412705574E0,6.518250892E-1,2.605826274E0,3.034953633E0
7.477692917E-1,1.975407695E0,2.277506576E-1,2.442310057E0,3.149441909E0
7.578172917E-1,1.678822153E0,1.114773126E-1,1.656973447E0,2.361447017E0
7.678642917E-1,5.021508038E-1,9.407053167E-1,-7.088959605E-1,1.280474680E0
7.779122917E-1,-6.431802732E-1,1.377315155E0,-2.540959017E0,2.960937458E0
7.879592917E-1,-1.176999487E0,7.783453873E-1,-2.672574579E0,3.022218426E0
7.980072917E-1,-1.545590128E-1,-8.340468407E-2,-2.539973761E0,2.546038401E0
8.080542917E-1,7.464714839E-1,-1.389413629E0,-2.317247470E0,2.803092176E0
8.181022917E-1,9.190280803E-1,-2.015370636E0,-1.875597332E0,2.902446686E0
8.281492917E-1,3.354597321E-1,-1.800809982E0,-1.109316212E0,2.141502342E0
8.381972917E-1,2.497111917E-1,-1.637846619E0,-7.818984479E-1,1.832010483E0
8.482452917E-1,6.633376721E-1,-1.619758550E0,-8.663708335E-1,1.953006157E0
8.582922917E-1,4.912333578E-1,-1.707882230E0,-1.002206916E0,2.040242786E0
8.683402917E-1,1.906130907E-1,-2.201420852E0,-1.666944119E0,2.767903505E0
8.783872917E-1,-7.578430027E-3,-2.645358129E0,-2.374557200E0,3.554785361E0
8.884352917E-1,-2.609958793E-1,-3.170593046E0,-2.369619811E0,3.966847257E0
8.984822917E-1,-6.927472664E-1,-3.739218396E0,-2.953861320E0,4.815282929E0
9.085302917E-1,-1.075151808E0,-3.521466916E0,-4.483159059E0,5.801327072E0
9.185772917E-1,-1.066085408E0,-3.447495252E0,-4.739192845E0,5.956652619E0
9.286252917E-1,-1.384802223E0,-3.517607753E0,-4.771195825E0,6.087327090E0
9.386722917E-1,-1.059315501E0,-3.713825400E0,-4.746291364E0,6.118981137E0
9.487202917E-1,-1.075539478E0,-3.654928736E0,-4.543693528E0,5.929623943E0
9.587682917E-1,-1.205454085E0,-3.948696943E0,-4.434286861E0,6.058731473E0
9.688152917E-1,-1.715119913E0,-4.855124128E0,-4.236127646E0,6.667731552E0
9.788632917E-1,-1.884021707E0,-5.606599805E0,-4.434254116E0,7.392300639E0
9.889102917E-1,-2.092452141E0,-5.747729956E0,-4.480739481E0,7.582333540E0
9.989582917E-1,-2.227768114E0,-5.698082417E0,-4.380620531E0,7.524688049E0
1.009005292E0,-2.090274931E0,-5.845941544E0,-4.304708469E0,7.554786352E0
1.019053292E0,-1.940241809E0,-6.085956298E0,-4.205221603E0,7.647698416E0
1.029099625E0,-1.600411575E0,-6.275383281E0,-4.181435714E0,7.708836304E0
1.039147625E0,-7.806184924E-1,-6.111362450E0,-3.730265724E0,7.202291205E0
1.049194625E0,-3.991438043E-1,-5.928711221E0,-2.843241940E0,6.587333090E0
1.059242625E0,-3.147012395E-1,-6.167572904E0,-1.644014847E0,6.390678932E0
1.069289625E0,-1.276353621E-1,-6.535392589E0,-2.275970221E-1,6.540599933E0
1.079337625E0,4.085332632E-1,-6.663861764E0,7.714243305E-1,6.720792255E0
1.089385625E0,1.473188442E0,-6.105355021E0,1.800913185E0,6.533676791E0
1.099432625E0,3.187522489E0,-5.181784970E0,3.151908268E0,6.851694741E0
1.109480625E0,5.446301896E0,-4.087521830E0,4.198655764E0,7.999921829E0
1.119527625E0,7.580888781E0,-2.678836947E0,4.790952105E0,9.359447856E0
1.129575625E0,9.005479259E0,-1.248766019E0,4.831260179E0,1.029558877E1
1.139622625E0,9.592927381E0,1.876403663E-1,4.577593346E0,1.063079609E1
1.149670625E0,9.180162488E0,1.089554816E0,4.305335875E0,1.019796205E1
1.159717625E0,8.771666647E0,1.278947300E0,4.040742935E0,9.741942590E0
1.169765625E0,8.614802223E0,1.514097609E0,3.955884048E0,9.599808723E0
1.179812625E0,8.404656801E0,2.026811298E0,4.092661532E0,9.565359293E0
1.189860625E0,7.924589871E0,2.362490301E0,3.998773960E0,9.185351285E0
1.199907625E0,7.535889194E0,2.365193761E0,3.937817321E0,8.825540931E0
1.209955625E0,6.786431099E0,2.369450827E0,3.945157331E0,8.199646983E0
1.220003625E0,5.819496342E0,2.240946568E0,3.923106312E0,7.367437976E0
1.230050625E0,4.804899176E0,2.055529606E0,3.752299787E0,6.433662390E0
1.240098625E0,3.808633617E0,1.901227432E0,3.324221036E0,5.401000025E0
1.250145625E0,3.077463858E0,1.935394175E0,2.769730160E0,4.570332544E0
1.260193625E0,2.513637317E0,2.057107769E0,2.081542553E0,3.857834151E0
1.270240625E0,2.240628480E0,2.206836543E0,1.572958167E0,3.516353354E0
1.280288625E0,2.264621944E0,2.397578858E0,1.245075111E0,3.525210485E0
1.290335625E0,2.415627458E0,2.518161601E0,9.297879803E-1,3.611218569E0
1.300383625E0,2.769795064E0,2.570083414E0,7.777795230E-1,3.857723997E0
1.310430625E0,2.990768945E0,2.690555644E0,6.058439740E-1,4.068271805E0
1.320478625E0,3.360911145E0,3.015876012E0,1.264524704E-1,4.517435342E0
1.330526625E0,3.656797798E0,3.384259077E0,-5.688943219E-1,5.014879897E0
1.340573625E0,3.823645758E0,3.572256415E0,-1.449708509E0,5.429819292E0
1.350621625E0,3.896537148E0,3.559974924E0,-2.427882053E0,5.809564051E0
1.360668625E0,4.022196736E0,3.611736816E0,-3.275921280E0,6.320946895E0
1.370716625E0,4.092477930E0,3.782087258E0,-3.772764457E0,6.729510478E0
1.380763625E0,4.205146174E0,4.004665030E0,-4.017757530E0,7.061371815E0
1.390811625E0,4.183241335E0,4.085581139E0,-4.094601054E0,7.138433938E0
1.400858625E0,4.092685506E0,4.017630646E0,-4.006982281E0,6.996237393E0
1.410906625E0,3.782850319E0,3.754623178E0,-3.961197998E0,6.640650670E0
1.420953625E0,3.095382065E0,3.184598882E0,-3.888152826E0,5.902608962E0
1.431001625E0,2.515749916E0,2.353661298E0,-3.681582391E0,5.042099568E0
1.441049625E0,1.981344811E0,1.557217316E0,-3.543921393E0,4.348566646E0
1.451096625E0,1.497487131E0,9.906145182E-1,-3.379304146E0,3.826680199E0
1.461144625E0,9.838852501E-1,7.037188357E-1,-3.132766823E0,3.358195699E0
1.471191625E0,7.874889708E-1,5.828022167E-1,-2.865930891E0,3.028755054E0
1.481239625E0,6.269285220E-1,5.001126471E-1,-2.528125548E0,2.652276535E0
1.491286625E0,5.294150913E-1,4.776637244E-1,-2.325337824E0,2.432208660E0
1.501334625E0,4.655757755E-1,3.286161509E-1,-2.249095394E0,2.320167983E0
1.511381625E0,3.399056625E-1,2.780117154E-2,-2.374298753E0,2.398666991E0
1.521429625E0,3.523181319E-1,1.302800578E-1,-2.420307277E0,2.449283217E0
1.531476625E0,3.940046865E-1,4.244815439E-2,-2.271990606E0,2.306292013E0
1.541524625E0,3.625384802E-1,-4.961684078E-2,-2.198754230E0,2.228994424E0
1.551572625E0,4.861720079E-1,-1.239466462E-1,-1.866123088E0,1.932392655E0
1.561619625E0,4.829876143E-1,-3.576794440E-1,-1.610340732E0,1.718839403E0
1.571667625E0,5.772049695E-1,-2.831862089E-1,-1.750221772E0,1.864574015E0
1.581714625E0,1.129652243E0,5.744500539E-1,-2.923841715E0,3.186684394E0
1.591762625E0,1.715867187E0,7.034887478E-1,-3.294377432E0,3.780478711E0
1.601809625E0,2.057665594E0,1.097025657E0,-3.445574734E0,4.160461301E0
1.611857625E0,2.517652600E0,1.770388673E0,-3.480703636E0,4.646304819E0
1.621904625E0,2.753401226E0,1.719634256E0,-3.145893238E0,4.520509324E0
1.631952625E0,2.747866836E0,1.344004445E0,-2.649365226E0,4.046758727E0
1.641999625E0,2.714399128E0,1.003971313E0,-1.761837412E0,3.388213702E0
1.652047625E0,2.751805521E0,7.998371208E-1,-8.586812333E-1,2.991572580E0
1.662095625E0,3.119371437E0,9.077077246E-1,-4.011131465E-2,3.249002984E0
1.672142625E0,3.576925417E0,1.256711362E0,4.721720195E-1,3.820558245E0
1.682190625E0,3.934522415E0,1.683933204E0,6.959291750E-1,4.335944544E0
1.692237625E0,4.198103787E0,2.104163968E0,7.070535028E-1,4.748842603E0
1.702285625E0,4.114652326E0,2.301142192E0,8.207800931E-1,4.785321213E0
1.712332625E0,3.826057734E0,2.101489890E0,1.124514149E0,4.507716674E0
1.722380625E0,3.593784694E0,1.666648250E0,1.639725915E0,4.287389169E0
1.732427625E0,3.391835899E0,1.250077696E0,2.187158616E0,4.225033470E0
1.742475625E0,3.234231802E0,8.482373022E-1,2.728085121E0,4.315345907E0
1.752522625E0,2.941381023E0,5.178664018E-1,3.245785023E0,4.410785457E0
1.762570625E0,2.356548945E0,2.500014328E-1,3.505609851E0,4.231444680E0
1.772617625E0,1.645108861E0,-4.535195477E-2,3.485364452E0,3.854374830E0
1.782665625E0,9.886542392E-1,-3.164513842E-1,3.285931129E0,3.446000880E0
1.792713625E0,4.167924553E-1,-4.906313504E-1,3.014515073E0,3.082488637E0
1.802760625E0,2.383909822E-2,-6.380350158E-1,2.708013968E0,2.782264660E0
1.812808625E0,-2.916018140E-1,-8.402637465E-1,2.326059809E0,2.490307012E0
1.822855625E0,-7.399458450E-1,-1.069455450E0,1.700228809E0,2.140568340E0
1.832903625E0,-1.310905403E0,-1.355887741E0,9.788391030E-1,2.124860121E0
1.842950625E0,-1.926546460E0,-1.615252393E0,2.407076490E-1,2.525581464E0
1.852998625E0,-2.298109533E0,-1.939920797E0,-1.700791311E-1,3.012229579E0
1.863045625E0,-2.548772652E0,-2.478306394E0,-4.135016423E-1,3.578998215E0
1.873093625E0,-2.728197972E0,-2.896986038E0,-5.275580156E-1,4.014213465E0
1.883140625E0,-2.913273457E0,-3.052902921E0,-7.229269391E-1,4.281355140E0
1.893188625E0,-2.914645214E0,-3.010725200E0,-9.485037482E-1,4.296426691E0
1.903236625E0,-2.699516795E0,-2.872713076E0,-1.233991714E0,4.130690849E0
1.913283625E0,-2.301326671E0,-2.708643129E0,-1.464559121E0,3.844188532E0
1.923331625E0,-1.823281124E0,-2.555749549E0,-1.652697963E0,3.547903658E0
1.933378625E0,-1.395375158E0,-2.282040800E0,-1.763636016E0,3.203934150E0
1.943426625E0,-1.130475239E0,-2.050915422E0,-2.045442574E0,3.109351002E0
1.953473625E0,-8.031519073E-1,-1.877906982E0,-2.429944950E0,3.174306236E0
1.963521625E0,-4.277869749E-1,-1.704396997E0,-2.661718054E0,3.189469206E0
1.973568625E0,-1.880461630E-1,-1.658348419E0,-2.840401947E0,3.294444424E0
1.983616625E0,-1.578868094E-1,-1.739765050E0,-2.849541146E0,3.342393665E0
1.993663625E0,-2.535352707E-2,-1.783946612E0,-2.651328721E0,3.195724065E0
2.003711625E0,3.026311246E-1,-1.887151868E0,-2.273085789E0,2.969822684E0
2.013759625E0,6.710805550E-1,-1.847884307E0,-1.817285973E0,2.677228760E0
2.023806625E0,7.814040658E-1,-1.704066629E0,-1.565934053E0,2.442659380E0
2.033855750E0,1.001853159E0,-1.503439158E0,-1.626898293E0,2.431221321E0
2.043902750E0,1.255621734E0,-1.279529098E0,-1.763964629E0,2.515025221E0
2.053950750E0,1.502168997E0,-1.048861849E0,-1.812001845E0,2.576814615E0
2.063997750E0,1.616432508E0,-7.877732916E-1,-1.799316310E0,2.543812099E0
2.074045750E0,1.662399517E0,-5.907911213E-1,-1.670342520E0,2.429537083E0
2.084092750E0,1.819290545E0,-4.204436029E-1,-1.470064859E0,2.376485136E0
2.094140750E0,1.895407698E0,-2.003706318E-1,-1.097939284E0,2.199588463E0
2.104187750E0,1.935083541E0,-1.692663682E-1,-7.158746123E-1,2.070187401E0
2.114235750E0,1.828627233E0,-2.916285650E-1,-2.014792639E-1,1.862664401E0
2.124283750E0,1.593407196E0,-4.831782335E-1,4.166673249E-1,1.716397202E0
2.134330750E0,1.501899294E0,-8.938661957E-1,9.458438498E-1,1.987289323E0
2.144378750E0,1.424274583E0,-1.150915643E0,1.297856757E0,2.244459192E0
2.154425750E0,1.292994066E0,-1.287436873E0,1.408758557E0,2.305195877E0
2.164473750E0,1.050518658E0,-1.377648885E0,1.120280326E0,2.063136910E0
2.174520750E0,8.025898437E-1,-1.314483607E0,5.372316492E-1,1.631145443E0
2.184568750E0,6.600190117E-1,-1.260656917E0,5.145549774E-2,1.423913139E0
2.194615750E0,6.351521923E-1,-1.230052298E0,-3.311991584E-1,1.423425392E0
2.204663750E0,7.376683545E-1,-1.168912934E0,-5.362317753E-1,1.482584421E0
2.214710750E0,8.258608849E-1,-1.127579844E0,-5.111314327E-1,1.488199532E0
2.224758750E0,7.650384401E-1,-1.192710956E0,-3.856893611E-1,1.468536524E0
2.234806750E0,6.944143076E-1,-1.382899246E0,-2.585644609E-1,1.568909537E0
2.244853750E0,5.823654662E-1,-1.553053368E0,-1.049376404E-1,1.661967571E0
2.254901750E0,4.397561157E-1,-1.726240586E0,-5.831895947E-2,1.782328001E0
2.264948750E0,2.553859510E-1,-1.837213869E0,-1.198848778E-1,1.858749356E0
2.274996750E0,7.964052072E-2,-1.860077213E0,-1.867758554E-1,1.871126685E0
2.285043750E0,1.490786003E-2,-1.847964998E0,-2.446732306E-1,1.864151783E0
2.295091750E0,8.346834563E-2,-1.696494777E0,-2.578452533E-1,1.718006306E0
2.305138750E0,2.328947639E-1,-1.536096881E0,-2.263129735E-1,1.570048140E0
2.315186750E0,2.333207153E-1,-1.491399303E0,-2.297277474E-1,1.526920193E0
2.325234750E0,5.433938105E-2,-1.586717396E0,-2.246652281E-1,1.603464789E0
2.335281750E0,-2.194159451E-1,-1.744505973E0,-2.045303410E-1,1.770106524E0
2.345329750E0,-3.906661456E-1,-1.918887777E0,-1.887984073E-1,1.967331995E0
2.355376750E0,-4.020613457E-1,-1.985712681E0,-2.557934654E-1,2.042091691E0
2.365424750E0,-3.160707305E-1,-1.932754888E0,-3.815746754E-1,1.995254720E0
2.375471750E0,-2.969110128E-1,-1.723013654E0,-6.134220386E-1,1.852894708E0
2.385519750E0,-4.021397349E-1,-1.634723037E0,-8.197492290E-1,1.872438136E0
2.395566750E0,-4.407554414E-1,-1.554557126E0,-8.568088818E-1,1.828943596E0
2.405614750E0,-4.545927311E-1,-1.536143220E0,-8.744113398E-1,1.825098829E0
2.415661750E0,-4.055914559E-1,-1.448063833E0,-8.331428611E-1,1.719162680E0
2.425709750E0,-2.618714450E-1,-1.319547588E0,-8.495197427E-1,1.591058228E0
2.435757750E0,-1.064032816E-1,-1.179973966E0,-9.726276058E-1,1.532861598E0
2.445804750E0,1.136021816E-1,-1.029362116E0,-9.923526031E-1,1.434313603E0
2.455852750E0,1.982543417E-1,-8.620161197E-1,-1.056534566E0,1.377912139E0
2.465899750E0,2.350954549E-1,-6.307495312E-1,-1.172149222E0,1.351683633E0
2.475947750E0,2.028362199E-1,-4.145751911E-1,-1.247466037E0,1.330107753E0
2.485994750E0,2.272320827E-1,-2.878265592E-1,-1.091719601E0,1.151664116E0
2.496042750E0,2.426078479E-1,-2.304893473E-1,-9.014880413E-1,9.615948189E-1
2.506089750E0,2.702766348E-1,-2.013428776E-1,-8.023502541E-1,8.702610780E-1
2.516137750E0,2.400519568E-1,-2.250337489E-1,-7.486108339E-1,8.177305857E-1
2.526184750E0,1.092914863E-1,-2.406769511E-1,-7.272182107E-1,7.737676329E-1
2.536232750E0,-1.655908084E-1,-3.138336588E-1,-7.928052592E-1,8.685919988E-1
2.546280750E0,-4.578686336E-1,-4.380580477E-1,-1.142281644E0,1.306271753E0
2.556327750E0,-4.053189026E-1,-4.403235514E-1,-1.398858052E0,1.521503234E0
2.566375750E0,-2.613060924E-1,-2.964402388E-1,-1.442316898E0,1.495471739E0
2.576422750E0,-1.871022031E-1,-1.204681376E-1,-1.533613569E0,1.549674283E0
2.586470750E0,-2.188380392E-1,5.935493991E-2,-1.496937493E0,1.514012865E0
2.596517750E0,-4.281155884E-1,1.529840653E-1,-1.345046711E0,1.419802006E0
2.606565750E0,-6.687225191E-1,1.264170948E-1,-1.162290816E0,1.346881966E0
2.616612750E0,-9.594789720E-1,4.831700474E-2,-9.396107179E-1,1.343801597E0
2.626660750E0,-1.281606468E0,-4.118193984E-2,-6.331242317E-1,1.430055028E0
2.636708750E0,-1.551476374E0,-7.329514056E-2,-2.242132384E-1,1.569306437E0
2.646755750E0,-1.421949145E0,-1.733769608E-1,7.728323400E-2,1.434563223E0
2.656803750E0,-1.004655730E0,-1.633149259E-1,4.299662322E-1,1.104932514E0
2.666850750E0,-6.564070404E-1,1.403249896E-1,9.008384156E-1,1.123419404E0
2.676898750E0,-6.310279318E-1,2.504960342E-1,1.111733451E0,1.302649523E0
2.686945750E0,-7.364459941E-1,1.192729667E-1,1.047936235E0,1.286370513E0
2.696993750E0,-9.537910198E-1,4.698720172E-2,9.329565865E-1,1.335040486E0
2.707040750E0,-1.126875254E0,2.673653975E-2,8.437017632E-1,1.407975620E0
2.717088750E0,-1.176975879E0,-1.725060180E-2,8.216408032E-1,1.435501102E0
2.727135750E0,-1.138676836E0,-1.030926246E-1,1.001939698E0,1.520228991E0
2.737183750E0,-9.660877144E-1,-1.887658091E-1,1.217819484E0,1.565899837E0
2.747231750E0,-6.510937487E-1,-1.725698257E-1,1.408929296E0,1.561661031E0
2.757278750E0,-2.869017855E-1,-6.563207209E-2,1.532737071E0,1.560738009E0
2.767326750E0,7.275705054E-2,3.279337808E-2,1.568874618E0,1.570903103E0
2.777373750E0,2.831489877E-1,9.717312276E-2,1.461038513E0,1.491391800E0
2.787421750E0,4.200222745E-1,1.364465314E-1,1.258890327E0,1.334106901E0
2.797468750E0,4.087969726E-1,1.254970354E-1,9.575072908E-1,1.048658516E0
2.807516750E0,4.442724685E-1,7.913636282E-2,6.951228440E-1,8.287559101E-1
2.817563750E0,5.697109221E-1,1.310035045E-1,5.608093768E-1,8.100861745E-1
2.827611750E0,6.611166803E-1,8.426787928E-2,4.038344407E-1,7.792679872E-1
2.837659750E0,7.953418545E-1,2.122685462E-2,1.721888065E-1,8.140443661E-1
2.847706750E0,9.335035935E-1,-3.158914402E-2,3.144807994E-2,9.345671805E-1
2.857754750E0,1.043620259E0,-5.883161411E-2,-7.772703767E-2,1.048163106E0
2.867801750E0,1.213821962E0,-7.424838290E-2,-2.109359658E-1,1.234248986E0
2.877849750E0,1.348156553E0,-1.112837698E-1,-3.019660038E-1,1.386035221E0
2.887896750E0,1.483509655E0,-1.217252889E-1,-3.695890528E-1,1.533692932E0
2.897944750E0,1.566896943E0,-1.125887221E-1,-4.891330379E-1,1.645324704E0
2.907991750E0,1.643755816E0,-9.869880751E-2,-6.536672544E-1,1.771709772E0
2.918039750E0,1.682315133E0,-1.068154737E-1,-7.599363059E-1,1.849080026E0
2.928086750E0,1.731354123E0,-1.879571392E-1,-8.242305350E-1,1.926725450E0
2.938134750E0,1.774038212E0,-2.783932462E-1,-8.443841332E-1,1.984363612E0
2.948182750E0,1.778390441E0,-3.384235395E-1,-8.952490622E-1,2.019572711E0
2.958229750E0,1.768449736E0,-3.681605780E-1,-9.039906496E-1,2.019939547E0
2.968277750E0,1.806163546E0,-3.313498704E-1,-9.473951161E-1,2.066295477E0
2.978324750E0,1.816636055E0,-2.433500057E-1,-1.051153373E0,2.112891194E0
2.988372750E0,1.663469996E0,-1.122652249E-1,-1.346750590E0,2.143238917E0
2.998419750E0,1.506524734E0,-5.280328095E-3,-1.699373361E0,2.271016177E0
3.008467750E0,1.293354547E0,1.005691856E-1,-1.977262870E0,2.364835851E0
3.018514750E0,1.107998834E0,2.203874052E-1,-2.155094824E0,2.433241814E0
3.028561625E0,1.104393733E0,3.837942785E-1,-2.095585957E0,2.399679993E0
3.038609625E0,1.037491500E0,4.173722067E-1,-1.609306945E0,1.959708400E0
3.048656625E0,1.017408507E0,2.357720143E-1,-5.894525474E-1,1.199234263E0
3.058704625E0,9.075168130E-1,-1.086430210E-1,6.195581067E-1,1.104193063E0
3.068751625E0,6.877611995E-1,-4.898084644E-1,1.547667936E0,1.763009881E0
3.078799625E0,2.759070101E-1,-8.200827395E-1,2.229041637E0,2.391084900E0
3.088846625E0,-2.108162440E-1,-1.018428846E0,2.433196587E0,2.646145581E0
3.098894625E0,-7.169611712E-1,-1.042418583E0,2.173986593E0,2.515330502E0
3.108941625E0,-1.147597787E0,-9.102973833E-1,1.685789695E0,2.233273136E0
3.118989625E0,-1.373415940E0,-6.567792888E-1,1.141277093E0,1.902667543E0
3.129037625E0,-1.537551668E0,-3.772321676E-1,5.980695891E-1,1.692352349E0
3.139084625E0,-1.698505050E0,-9.742952317E-2,1.525579494E-1,1.708123486E0
3.149132625E0,-1.872564673E0,1.240867601E-1,-2.679854947E-1,1.895708892E0
3.159179625E0,-2.084106995E0,2.618696726E-1,-5.434431463E-1,2.169656228E0
3.169227625E0,-2.155176978E0,3.556356228E-1,-4.716902089E-1,2.234671375E0
3.179274625E0,-2.156024532E0,3.701329169E-1,-3.646399695E-1,2.217747160E0
3.189322625E0,-2.095407178E0,3.358533959E-1,-1.979867220E-1,2.131367516E0
3.199369625E0,-2.013046076E0,3.057535377E-1,-7.594772995E-2,2.037549456E0
3.209417625E0,-1.928918822E0,3.269972762E-1,7.292647362E-3,1.956452970E0
3.219464625E0,-1.902170734E0,4.147386208E-1,7.759839892E-2,1.948405280E0
3.229512625E0,-1.759506712E0,5.121563765E-1,6.745114088E-2,1.833771436E0
3.239560625E0,-1.644235726E0,5.790836068E-1,1.861566353E-1,1.753140964E0
3.249607625E0,-1.490211733E0,5.749638779E-1,5.460024726E-1,1.688026413E0
3.259655625E0,-1.372806075E0,4.377281186E-1,1.176456866E0,1.860175578E0
3.269702625E0,-1.353458515E0,6.923293367E-2,1.924967127E0,2.354175353E0
3.279750625E0,-1.343831660E0,-4.327211844E-1,2.592862412E0,2.952298535E0
3.289797625E0,-1.461088214E0,-8.932304572E-1,3.131627786E0,3.569276118E0
3.299845625E0,-1.448387769E0,-1.323583629E0,3.537009400E0,4.044766525E0
3.309892625E0,-1.361803954E0,-1.557902902E0,3.658339124E0,4.202977113E0
3.319940625E0,-1.314814852E0,-1.623595932E0,3.245004712E0,3.859385628E0
3.329988625E0,-1.186101263E0,-1.572678962E0,2.530500687E0,3.206803557E0
3.340035625E0,-1.027768750E0,-1.415439001E0,1.677679607E0,2.423713067E0
3.350083625E0,-8.002559276E-1,-1.243517851E0,9.675697643E-1,1.767183478E0
3.360130625E0,-5.654052883E-1,-1.071240459E0,3.839884061E-1,1.270703096E0
3.370178625E0,-3.721052559E-1,-9.277875017E-1,-8.708667576E-2,1.003412208E0
3.380225625E0,-1.349186540E-1,-8.416727062E-1,-3.939777893E-1,9.390604273E-1
3.390273625E0,2.879753709E-5,-8.115737251E-1,-6.296866536E-1,1.027208447E0
3.400320625E0,8.701563209E-2,-8.170030110E-1,-7.943068242E-1,1.142798745E0
3.410368625E0,1.436725205E-1,-9.264167681E-1,-8.648996741E-1,1.275516079E0
3.420416625E0,1.722107336E-1,-1.037876905E0,-8.923815876E-1,1.379561490E0
3.430463625E0,2.372224161E-1,-1.117265867E0,-7.812242639E-1,1.383787861E0
3.440511625E0,4.174654698E-1,-1.248534031E0,-5.276644349E-1,1.418289252E0
3.450558625E0,5.913824210E-1,-1.359200189E0,-2.360702223E-1,1.500962182E0
3.460606625E0,6.832750694E-1,-1.494441171E0,-8.262525022E-2,1.645310355E0
3.470653625E0,6.792684111E-1,-1.622511127E0,-1.001920402E-2,1.758990709E0
3.480701625E0,6.456872669E-1,-1.718818131E0,2.549736857E-2,1.836272836E0
3.490748625E0,5.700139906E-1,-1.789173291E0,4.336470544E-2,1.878280467E0
3.500796625E0,5.709214785E-1,-1.838625679E0,7.607052147E-2,1.926728431E0
3.510843625E0,6.424025935E-1,-1.878466268E0,1.745996135E-1,1.992937941E0
3.520891625E0,6.698924008E-1,-1.938772988E0,2.460309541E-1,2.065944762E0
3.530939625E0,6.082755386E-1,-2.008678790E0,2.580195004E-1,2.114559925E0
3.540986625E0,5.336054253E-1,-2.052426196E0,2.725942701E-1,2.138105628E0
3.551034625E0,4.756903622E-1,-2.071617343E0,2.658559388E-1,2.142092228E0
3.561081625E0,4.830196278E-1,-2.072452910E0,2.167252940E-1,2.139004179E0
3.571129625E0,4.892173840E-1,-2.012235067E0,1.555102086E-1,2.076681737E0
3.581176625E0,4.869789968E-1,-1.899086474E0,7.467011333E-2,1.961951479E0
3.591224625E0,4.546113691E-1,-1.780889541E0,-2.690947115E-2,1.838195630E0
3.601271625E0,3.680592750E-1,-1.623103158E0,-2.135315448E-1,1.677953280E0
3.611319625E0,2.318063595E-1,-1.497283356E0,-4.581954199E-1,1.582888082E0
3.621367625E0,1.656625099E-1,-1.390351230E0,-5.621571600E-1,1.508821157E0
3.631414625E0,2.571232684E-1,-1.297388103E0,-3.961669868E-1,1.380679740E0
3.641462625E0,4.816051132E-1,-1.178540229E0,2.369291782E-3,1.273148133E0
3.651509625E0,6.329655529E-1,-1.138270308E0,4.991072184E-1,1.394780521E0
3.661557625E0,7.120693175E-1,-1.224238704E0,8.952642649E-1,1.675500290E0
3.671604625E0,5.482655644E-1,-1.356473925E0,1.079254507E0,1.818077811E0
3.681652625E0,3.215107606E-1,-1.484646792E0,9.055191118E-1,1.768476782E0
3.691699625E0,1.136385897E-1,-1.526967623E0,5.238146281E-1,1.618309493E0
3.701747625E0,5.062080771E-3,-1.399295716E0,1.849181950E-2,1.399427052E0
3.711795625E0,-8.500769824E-2,-1.119942065E0,-4.956351417E-1,1.227660674E0
3.721842625E0,-1.625491599E-1,-8.406584336E-1,-1.022810749E0,1.333893047E0
3.731890625E0,-1.912159752E-1,-5.784336157E-1,-1.455073768E0,1.577462731E0
3.741937625E0,-2.263221098E-1,-3.329059607E-1,-1.629331319E0,1.678323158E0
3.751985625E0,-2.782007997E-1,-1.643453515E-1,-1.601841220E0,1.634105374E0
3.762032625E0,-3.168736263E-1,-9.999177307E-3,-1.526210409E0,1.558790265E0
3.772080625E0,-3.398987921E-1,7.909309343E-2,-1.442981141E0,1.484581247E0
3.782127625E0,-3.719652881E-1,1.901382968E-1,-1.337269329E0,1.400999646E0
3.792175625E0,-3.480771099E-1,3.334678781E-1,-1.229674129E0,1.320778924E0
3.802223625E0,-3.541075992E-1,4.286802833E-1,-1.150664213E0,1.277962092E0
3.812270625E0,-3.255568146E-1,5.732025504E-1,-1.111090842E0,1.291925409E0
3.822318625E0,-2.257025607E-1,7.180373512E-1,-9.515027851E-1,1.213209312E0
3.832365625E0,-7.290220767E-2,8.113387401E-1,-6.484328270E-1,1.041177417E0
3.842413625E0,5.082410809E-2,8.291436580E-1,-2.212808597E-1,8.596670951E-1
3.852460625E0,9.521072410E-2,7.358567409E-1,2.334249419E-1,7.778415190E-1
3.862508625E0,8.508126352E-2,5.381939547E-1,7.377373517E-1,9.171411856E-1
3.872555625E0,4.993620839E-2,2.480137450E-1,1.323449435E0,1.347413392E0
3.882603625E0,-8.068843313E-2,-7.166332886E-2,1.800913185E0,1.804143718E0
3.892651625E0,-1.927374207E-1,-2.850051315E-1,2.023748235E0,2.052786534E0
3.902698625E0,-3.145334609E-1,-3.517062208E-1,2.024901890E0,2.079147957E0
3.912746625E0,-5.012057110E-1,-3.417843729E-1,1.745771018E0,1.848172115E0
3.922793625E0,-5.874246234E-1,-2.386536683E-1,1.208897803E0,1.365085037E0
3.932841625E0,-6.605027226E-1,-6.225091964E-3,6.180688208E-1,9.046058068E-1
3.942888625E0,-6.666689039E-1,2.661759277E-1,1.971172410E-1,7.444140371E-1
3.952936625E0,-6.645937271E-1,4.539762153E-1,-8.099913955E-2,8.089129043E-1
3.962983625E0,-6.105694013E-1,5.600889999E-1,-2.839776295E-1,8.758641308E-1
3.973031625E0,-6.205605387E-1,6.544063425E-1,-2.883975399E-1,9.468453856E-1
3.983079625E0,-6.294906257E-1,6.461902736E-1,-1.078056997E-1,9.085385993E-1
3.993126625E0,-5.396830212E-1,5.457384709E-1,1.164619178E-1,7.763063959E-1
4.003174625E0,-4.537198149E-1,4.157548669E-1,4.125549781E-1,7.408882438E-1
4.013221625E0,-2.366909956E-1,3.232346660E-1,6.106077737E-1,7.303048199E-1
4.023269625E0,-6.186372433E-2,2.877508378E-1,7.819101423E-1,8.354706073E-1
4.033317875E0,6.935227169E-2,2.373586562E-1,8.419481832E-1,8.775110327E-1
4.043365875E0,2.233701978E-1,1.993410833E-1,8.721736103E-1,9.221268456E-1
4.053412875E0,3.725637507E-1,2.026346737E-1,8.438643157E-1,9.444424507E-1
4.063460875E0,4.156358395E-1,2.186205228E-1,7.231608278E-1,8.622700661E-1
4.073508875E0,4.770601456E-1,1.968413986E-1,6.355198359E-1,8.186686635E-1
4.083555875E0,5.687111944E-1,1.817188910E-1,5.294706398E-1,7.979933185E-1
4.093603875E0,6.344454832E-1,1.779756497E-1,4.373986280E-1,7.908944068E-1
4.103650875E0,7.599859341E-1,6.330254138E-2,4.644688976E-1,8.929261944E-1
4.113698875E0,8.081175821E-1,1.348182280E-1,5.655380201E-1,9.955215886E-1
4.123745875E0,6.896739699E-1,3.366404311E-1,5.705713034E-1,9.563098749E-1
4.133793875E0,6.836338692E-1,3.264251992E-1,2.347236085E-1,7.930976297E-1
4.143840875E0,6.447655264E-1,3.848763058E-1,-9.226906300E-3,7.509577156E-1
4.153888875E0,4.090733632E-1,3.603653625E-1,1.699189174E-1,5.710312158E-1
4.163936875E0,3.444330520E-1,3.190593155E-1,9.682872176E-2,4.793837455E-1
4.173983875E0,7.651847301E-2,2.264179310E-1,2.591333950E-1,3.525198896E-1
4.184031875E0,1.099971265E-1,-2.122815563E-1,4.739887494E-1,5.308749019E-1
4.194078875E0,-6.834660541E-2,-6.042477572E-1,7.246787649E-1,9.460158154E-1
4.204126875E0,4.252228247E-1,-1.281501949E0,9.928040081E-1,1.675924072E0
4.214173875E0,6.020155095E-1,-5.761784908E-1,-2.235975266E-2,8.336091923E-1
4.224221875E0,6.734051156E-1,2.068049079E-1,-1.782448847E0,1.916602883E0
4.234268875E0,9.493544450E-1,9.645894384E-1,-2.123636220E0,2.518240942E0
4.244316875E0,5.040621489E-1,1.313445726E0,-1.806380916E0,2.289591741E0
4.254364875E0,3.967573820E-2,1.491090862E0,-1.106420671E0,1.857173342E0
4.264411875E0,-4.333838932E-1,1.665400161E0,-1.251660830E-1,1.725411790E0
4.274459875E0,-5.893966700E-1,1.712392479E0,6.580187523E-1,1.926827734E0
4.284506875E0,-5.665289770E-1,1.666098611E0,8.628800458E-1,1.959949397E0
4.294554875E0,-5.616243691E-1,1.477560405E0,5.560789794E-1,1.675658233E0
4.304601875E0,-3.738478723E-1,9.135742360E-1,-3.791129977E-1,1.057405684E0
4.314649875E0,-4.757298675E-1,-1.529169685E-1,-1.078426541E0,1.188573225E0
4.324697875E0,-5.507467572E-1,-7.320792934E-1,-1.043191804E0,1.388348380E0
4.334744875E0,-4.032439085E-1,-8.612524733E-1,-1.035774027E0,1.406125637E0
4.344792875E0,-8.945503199E-1,-4.347866768E-1,-5.987238926E-1,1.160917753E0
4.354839875E0,-7.779556704E-1,5.505548224E-1,4.551069206E-1,1.056147692E0
4.364887875E0,-7.186717741E-1,1.349381837E0,9.114897037E-1,1.779925262E0
4.374934875E0,-7.758325464E-1,1.557659658E0,3.873213190E-1,1.782761216E0
4.384982875E0,-1.148709196E0,1.410702172E0,-1.320196044E-1,1.824018260E0
4.395029875E0,-1.206667821E0,1.029468389E0,-5.999418676E-1,1.695813268E0
4.405077875E0,-9.494657613E-1,5.285611054E-1,-9.354504240E-1,1.433851307E0
4.415125875E0,-6.083316353E-1,1.159672433E-1,-1.061733910E0,1.229143879E0
4.425172875E0,-1.987624282E-1,-2.223494384E-1,-1.224872981E0,1.260658397E0
4.435220875E0,1.474194529E-1,-5.819420913E-1,-1.022363437E0,1.185586813E0
4.445267875E0,2.762483779E-1,-7.316118085E-1,-5.014572144E-1,9.289931875E-1
4.455315875E0,5.208974522E-1,-6.470546383E-1,-7.013325870E-2,8.336261360E-1
4.465362875E0,8.690393566E-1,-5.108203608E-1,1.710585397E-1,1.022461671E0
4.475410875E0,1.193563480E0,-4.390723935E-1,2.753816378E-1,1.301235334E0
4.485457875E0,1.110522931E0,-5.426113799E-1,-2.176175791E-1,1.255008247E0
4.495505875E0,8.092461678E-1,-6.456501371E-1,-8.130605990E-1,1.316362791E0
4.505553875E0,5.383035900E-1,-6.306023276E-1,-1.139774358E0,1.409438058E0
4.515600875E0,2.353467024E-1,-6.519993362E-1,-1.185170386E0,1.372996741E0
4.525648875E0,2.295597862E-1,-6.857225677E-1,-1.139400721E0,1.349498847E0
4.535695875E0,4.209376927E-1,-5.414214715E-1,-8.635518909E-1,1.102745492E0
4.545743875E0,6.189350858E-1,-3.854162961E-1,-3.861126995E-1,8.250511369E-1
4.555790875E0,7.486717180E-1,-3.180242121E-1,-2.031585842E-1,8.384045272E-1
4.565838875E0,7.660340747E-1,-2.902733266E-1,-3.696206278E-1,8.987136453E-1
4.575885875E0,7.482489643E-1,-2.252926344E-1,-4.115545195E-1,8.831819780E-1
4.585933875E0,6.044158646E-1,-2.519483364E-1,-6.207363206E-1,9.022804893E-1
4.595981875E0,4.207933395E-1,-2.534262201E-1,-7.909464294E-1,9.310682777E-1
4.606028875E0,3.845050807E-1,-2.069101578E-1,-8.714889014E-1,9.747558031E-1
4.616076875E0,3.671088101E-1,-1.561001927E-1,-7.799063015E-1,8.760079838E-1
4.626123875E0,3.496603531E-1,-1.805813152E-1,-5.124458867E-1,6.461213205E-1
4.636171875E0,4.685449916E-1,-1.818036756E-1,-2.611495149E-1,5.663797796E-1
4.646218875E0,6.891545910E-1,-6.916934520E-2,1.807608247E-1,7.158162643E-1
4.656266875E0,8.848217225E-1,-3.518474311E-2,6.331429428E-1,1.088585060E0
4.666313875E0,8.902408489E-1,-1.327265328E-1,8.577403432E-1,1.243327631E0
4.676361875E0,6.723706701E-1,-2.658650020E-1,7.131568265E-1,1.015558554E0
4.686409875E0,4.664117812E-1,-3.147883630E-1,4.409443796E-1,7.148871302E-1
4.696456875E0,3.692295221E-1,-3.334164226E-1,2.121416616E-1,5.408336486E-1
4.706504875E0,3.211882136E-1,-2.726901644E-1,2.839992642E-2,4.222894152E-1
4.716551875E0,3.699994542E-1,-2.025121745E-1,8.102779090E-2,4.295070196E-1
4.726599875E0,5.532867146E-1,-5.096900940E-2,2.853593266E-1,6.246230654E-1
4.736646875E0,8.044557633E-1,1.171799558E-1,5.212775213E-1,9.657175940E-1
4.746694875E0,1.057727690E0,1.892819721E-1,6.159889662E-1,1.238570926E0
4.756742875E0,1.200304442E0,2.063286522E-1,6.492900288E-1,1.380173833E0
4.766789875E0,1.181891414E0,1.737555680E-1,5.346196979E-1,1.308769091E0
4.776837875E0,1.157175818E0,6.409776270E-2,4.745483279E-1,1.252342011E0
4.786884875E0,1.106964243E0,-9.024592638E-2,5.055040723E-1,1.220265761E0
4.796932875E0,1.117536593E0,-2.880639562E-1,5.796643084E-1,1.291464127E0
4.806979875E0,1.143554802E0,-3.825453132E-1,6.178027725E-1,1.354894375E0
4.817027875E0,1.172063706E0,-4.091516063E-1,5.178270793E-1,1.345096001E0
4.827074875E0,1.251497400E0,-4.072644174E-1,3.949911118E-1,1.374091710E0
4.837122875E0,1.293210121E0,-3.625566065E-1,2.604729921E-1,1.368095716E0
4.847170875E0,1.276371455E0,-3.277197728E-1,6.077595949E-2,1.319173248E0
4.857217875E0,1.246993144E0,-2.937307853E-1,-1.726156533E-2,1.281236760E0
4.867265875E0,1.251688312E0,-2.829491043E-1,-1.172249794E-2,1.283324293E0
4.877312875E0,1.325201261E0,-2.424115276E-1,3.008860230E-2,1.347526272E0
4.887360875E0,1.392476693E0,-2.333828419E-1,1.027788484E-1,1.415634975E0
4.897407875E0,1.362780000E0,-3.260521469E-1,1.930230206E-1,1.414474184E0
4.907455875E0,1.275110503E0,-4.529744411E-1,2.120007437E-1,1.369684984E0
4.917503875E0,1.106565097E0,-5.982055369E-1,1.550582188E-1,1.267430167E0
4.927550875E0,1.097683907E0,-6.485880706E-1,1.496501291E-1,1.283733464E0
4.937598875E0,1.117536812E0,-6.497914276E-1,3.639283633E-1,1.342967341E0
4.947645875E0,1.014450693E0,-7.437058970E-1,6.456173927E-1,1.413870746E0
4.957693875E0,9.593941873E-1,-7.509266236E-1,6.758264476E-1,1.393222663E0
4.967740875E0,9.008199969E-1,-6.457357988E-1,5.019828790E-1,1.216732592E0
4.977788875E0,7.832848227E-1,-5.077189976E-1,3.822769260E-1,1.008686940E0
4.987835875E0,6.380864713E-1,-4.536351764E-1,2.853324294E-1,8.332789529E-1
4.997883875E0,5.295755973E-1,-4.584933355E-1,1.999157184E-1,7.284454314E-1
5.007931875E0,3.957480338E-1,-4.925562903E-1,-1.587928355E-2,6.320445847E-1
5.017978875E0,2.521667299E-1,-4.892409191E-1,-2.812820631E-1,6.181135297E-1
5.028026000E0,1.427017365E-1,-3.735900101E-1,-4.104704458E-1,5.730787626E-1
5.038073000E0,1.438662095E-1,-1.686278522E-1,-4.376184833E-1,4.905535401E-1
5.048121000E0,1.943630563E-1,5.424871266E-2,-4.074135214E-1,4.546489832E-1
5.058168000E0,2.704556510E-1,2.080638134E-1,-3.697428346E-1,5.031367342E-1
5.068216000E0,2.525295496E-1,2.996426126E-1,-3.661111289E-1,5.362781251E-1
5.078264000E0,1.578803775E-1,3.417609841E-1,-3.753935838E-1,5.316456776E-1
5.088311000E0,2.742987335E-2,2.650151092E-1,-4.240932888E-1,5.008398183E-1
5.098359000E0,-3.923174724E-2,1.452606243E-1,-3.974019188E-1,4.249330112E-1
5.108406000E0,2.654372782E-2,2.242553383E-2,-2.883156788E-1,2.904021431E-1
5.118454000E0,1.814298923E-1,-9.413666368E-2,-9.286664844E-2,2.245055270E-1
5.128501000E0,4.145892245E-1,-1.523869184E-1,9.945061326E-2,4.527653061E-1
5.138549000E0,6.690914784E-1,-1.814668760E-1,2.417110312E-1,7.341919750E-1
5.148596000E0,9.538457644E-1,-1.263475129E-1,3.719846570E-1,1.031580351E0
5.158644000E0,1.111982688E0,-4.193301469E-2,3.882147735E-1,1.178547660E0
5.168692000E0,1.157140881E0,-2.857329637E-2,2.540463173E-1,1.185044718E0
5.178739000E0,1.065394998E0,-1.348435172E-1,1.629174614E-1,1.086182017E0
5.188787000E0,8.645637515E-1,-3.281898889E-1,1.528380311E-1,9.373038714E-1
5.198834000E0,6.639064600E-1,-5.137436762E-1,9.387120008E-2,8.446988544E-1
5.208882000E0,5.869636801E-1,-5.881345850E-1,3.510083556E-3,8.309277782E-1
5.218929000E0,5.917283569E-1,-5.794125858E-1,-1.272880375E-1,8.378923782E-1
5.228977000E0,6.322592092E-1,-4.905600509E-1,-3.387368041E-1,8.689899273E-1
5.239025000E0,6.736202931E-1,-3.473582312E-1,-4.801832896E-1,8.972168254E-1
5.249072000E0,8.019816602E-1,-2.377010107E-1,-5.159086078E-1,9.827705965E-1
5.259120000E0,9.503478138E-1,-1.990096924E-1,-5.182089025E-1,1.100593609E0
5.269167000E0,9.774702698E-1,-1.289436767E-1,-5.264990848E-1,1.117710108E0
5.279215000E0,8.856254954E-1,-1.064278033E-1,-6.738231915E-1,1.117898515E0
5.289262000E0,8.399328672E-1,-7.777615428E-2,-8.151164800E-1,1.173009475E0
5.299310000E0,7.718801940E-1,-8.145931542E-2,-9.823433393E-1,1.251971681E0
5.309358000E0,6.819449010E-1,-1.423896414E-1,-1.194620656E0,1.382910760E0
5.319405000E0,4.829700726E-1,-1.398057568E-1,-1.378003373E0,1.466867082E0
5.329453000E0,3.262910787E-1,-1.370742300E-1,-1.524057464E0,1.564610612E0
5.339500000E0,1.896167982E-1,-1.803377786E-1,-1.671364029E0,1.691725144E0
5.349548000E0,5.455167152E-2,-1.798179612E-1,-1.758153082E0,1.768166463E0
5.359595000E0,-3.144976102E-2,-1.680945861E-1,-1.758826681E0,1.767120870E0
5.369643000E0,-1.116544101E-1,-2.293947485E-1,-1.730037915E0,1.748748079E0
5.379691000E0,-1.962181585E-1,-3.403915662E-1,-1.702308664E0,1.747061181E0
5.389738000E0,-3.473471946E-1,-3.835726690E-1,-1.589374371E0,1.671493033E0
5.399786000E0,-4.916585235E-1,-3.865763837E-1,-1.468041723E0,1.595717990E0
5.409833000E0,-5.261879399E-1,-4.003553474E-1,-1.242066718E0,1.407084889E0
5.419881000E0,-5.310139393E-1,-4.522072864E-1,-9.413204437E-1,1.171559393E0
5.429928000E0,-6.043172660E-1,-5.008993900E-1,-7.462082130E-1,1.083017199E0
5.439976000E0,-7.707548243E-1,-5.533793199E-1,-6.812550026E-1,1.168075361E0
5.450024000E0,-9.725954461E-1,-5.400166780E-1,-6.196089774E-1,1.273371587E0
5.460071000E0,-1.067349941E0,-4.884483290E-1,-5.232837009E-1,1.285162830E0
5.470119000E0,-1.101017624E0,-4.297680116E-1,-4.287967891E-1,1.257301491E0
5.480166000E0,-1.076474375E0,-2.747580323E-1,-2.504456019E-1,1.138864371E0
5.490214000E0,-9.708449359E-1,-6.240265489E-2,1.505131781E-2,9.729648108E-1
5.500261000E0,-9.122258681E-1,4.995948762E-2,2.397159612E-1,9.445187806E-1
5.510309000E0,-9.277106839E-1,1.177029893E-1,3.794000959E-1,1.009180628E0
5.520357000E0,-1.005748355E0,1.018579119E-1,4.422412920E-1,1.103395735E0
5.530404000E0,-1.075393663E0,5.353710651E-2,3.738540119E-1,1.139782688E0
5.540452000E0,-1.173592534E0,1.689640671E-2,2.537369996E-1,1.200827793E0
5.550499000E0,-1.233677133E0,3.429421216E-2,1.508330208E-1,1.243336625E0
5.560547000E0,-1.237738025E0,8.408237636E-2,5.770909488E-2,1.241932206E0
5.570594000E0,-1.195327365E0,1.978503357E-1,2.523307443E-2,1.211853528E0
5.580642000E0,-1.097596930E0,3.827957202E-1,9.998270988E-2,1.166725386E0
5.590690000E0,-1.027299876E0,4.778683770E-1,1.216788036E-1,1.139521370E0
5.600737000E0,-1.046504179E0,5.096208045E-1,3.433777392E-2,1.164501371E0
5.610785000E0,-1.161664287E0,5.046635351E-1,-7.975192845E-2,1.269058537E0
5.620832000E0,-1.268281540E0,4.852034166E-1,-1.822232133E-1,1.370096975E0
5.630880000E0,-1.367835942E0,4.759499055E-1,-3.206759244E-1,1.483353135E0
5.640927000E0,-1.423536079E0,4.572747758E-1,-4.072883910E-1,1.549657712E0
5.650975000E0,-1.432997020E0,4.969162667E-1,-3.484437668E-1,1.556219552E0
5.661023000E0,-1.376102589E0,4.410038750E-1,-2.130602592E-1,1.460663352E0
5.671070000E0,-1.401391650E0,3.553705247E-1,-1.766508168E-1,1.456500010E0
5.681118000E0,-1.442431357E0,2.520540248E-1,-2.451772606E-1,1.484672132E0
5.691165000E0,-1.490666354E0,1.709945127E-1,-3.573829901E-1,1.542416255E0
5.701213000E0,-1.491421815E0,8.664433390E-2,-4.515874815E-1,1.560697768E0
5.711260000E0,-1.430755637E0,-8.480801582E-3,-4.702547175E-1,1.506078721E0
5.721308000E0,-1.306253651E0,-9.346832693E-2,-4.299820197E-1,1.378375662E0
5.731356000E0,-1.184560229E0,-1.386371908E-1,-3.773588330E-1,1.250920820E0
5.741403000E0,-1.098279885E0,-1.423881796E-1,-3.209723783E-1,1.153046559E0
5.751451000E0,-9.610436869E-1,-1.280452520E-1,-1.950701308E-1,9.889655760E-1
5.761498000E0,-7.476532061E-1,-2.127991810E-1,-1.310004348E-1,7.883082659E-1
5.771546000E0,-5.439206811E-1,-3.435277203E-1,-1.795060122E-1,6.678947600E-1
5.781594000E0,-3.181732065E-1,-4.172878607E-1,-2.846062052E-1,5.969623439E-1
5.791641000E0,-1.696950421E-1,-4.405923772E-1,-3.526438218E-1,5.893010396E-1
5.801689000E0,6.001669854E-2,-3.762585331E-1,-3.980714250E-1,5.510293524E-1
5.811736000E0,3.729840193E-1,-2.295238258E-1,-3.562650025E-1,5.645555927E-1
5.821784000E0,6.457293668E-1,-1.270629197E-1,-3.500377178E-1,7.454111648E-1
5.831831000E0,7.846654965E-1,-7.631654307E-2,-3.820459610E-1,8.760612264E-1
5.841879000E0,8.036671932E-1,-5.920883261E-2,-3.621186501E-1,8.834684828E-1
5.851927000E0,7.232356721E-1,-8.329914182E-2,-2.775123632E-1,7.791159709E-1
5.861974000E0,5.824993309E-1,-8.454211369E-2,-1.819513178E-1,6.160836969E-1
5.872022000E0,3.410251120E-1,-8.304544576E-2,-7.737035751E-3,3.510762521E-1
5.882069000E0,2.209522462E-1,-1.077229616E-1,2.641070366E-1,3.608000254E-1
5.892117000E0,2.572096976E-1,-1.412723847E-1,6.727484733E-1,7.339654103E-1
5.902164000E0,3.108991240E-1,-2.142426393E-1,1.136382973E0,1.197465839E0
5.912212000E0,4.069439534E-1,-2.864004233E-1,1.622999370E0,1.697573426E0
5.922260000E0,5.076151364E-1,-3.686494052E-1,1.987067481E0,2.083749670E0
5.932307000E0,5.397326495E-1,-4.096691214E-1,2.161512144E0,2.265231747E0
5.942355000E0,4.582791447E-1,-3.975408998E-1,2.065953437E0,2.153188832E0
5.952402000E0,2.897564328E-1,-3.491402433E-1,1.811188497E0,1.867153307E0
5.962450000E0,1.195792146E-1,-2.977586032E-1,1.606566355E0,1.638296318E0
5.972498000E0,2.907546256E-2,-2.253556747E-1,1.558351384E0,1.574830022E0
5.982545000E0,-5.068439618E-4,-1.838787428E-1,1.533833424E0,1.544816048E0
5.992593000E0,-1.410476323E-2,-2.286286536E-1,1.453813108E0,1.471748130E0
6.002640000E0,-2.263285417E-2,-2.401590705E-1,1.346992080E0,1.368421093E0
6.012688000E0,-6.859288283E-2,-2.458789996E-1,1.170472825E0,1.197985017E0
6.022735000E0,-1.693773191E-1,-2.505098482E-1,9.628387821E-1,1.009208789E0
6.032783167E0,-2.423321517E-1,-2.562211892E-1,8.195416528E-1,8.922010369E-1
6.042831167E0,-3.112263854E-1,-2.802981960E-1,7.039392757E-1,8.191211422E-1
6.052878167E0,-4.052190248E-1,-3.032193179E-1,5.534565032E-1,7.499723420E-1
6.062926167E0,-4.533878757E-1,-2.905316639E-1,4.076936030E-1,6.754134197E-1
6.072973167E0,-4.124111001E-1,-2.419120658E-1,4.040040100E-1,6.259581480E-1
6.083021167E0,-2.828511269E-1,-2.313463298E-1,5.113717532E-1,6.285116978E-1
6.093068167E0,-1.698373122E-1,-2.401464625E-1,5.424128670E-1,6.170305943E-1
6.103116167E0,-1.462835947E-1,-2.358061108E-1,5.237625879E-1,5.927315248E-1
6.113164167E0,-1.606082498E-1,-2.263052990E-1,4.798336262E-1,5.543008272E-1
6.123211167E0,-1.860506180E-1,-1.770498527E-1,4.416764510E-1,5.109203168E-1
6.133259167E0,-1.999075141E-1,-1.632117956E-1,4.301673764E-1,5.016423787E-1
6.143306167E0,-2.776981950E-1,-1.525149724E-1,4.597484404E-1,5.583419497E-1
6.153354167E0,-3.675273611E-1,-1.155777822E-1,4.708663362E-1,6.083992862E-1
6.163402167E0,-4.961606968E-1,-1.102754174E-1,4.046694231E-1,6.496871914E-1
6.173449167E0,-5.891593096E-1,-8.698179133E-2,2.896950370E-1,6.622671202E-1
6.183497167E0,-6.512567398E-1,-1.477218635E-2,1.285223848E-1,6.639815976E-1
6.193544167E0,-6.969886174E-1,7.800251462E-2,-8.776787639E-2,7.068102470E-1
6.203592167E0,-7.924018013E-1,2.164029662E-1,-2.920614052E-1,8.717974094E-1
6.213639167E0,-9.011250023E-1,3.661347736E-1,-4.556127048E-1,1.074087463E0
6.223687167E0,-1.003436731E0,4.962061954E-1,-4.517886257E-1,1.207153190E0
6.233735167E0,-1.135404661E0,5.430760143E-1,-3.347677141E-1,1.302361211E0
6.243782167E0,-1.270400279E0,5.399943855E-1,-2.471436793E-1,1.402351883E0
6.253830167E0,-1.395599691E0,4.459513503E-1,-2.589743507E-1,1.487830239E0
6.263877167E0,-1.531340171E0,4.249450819E-1,-3.679342908E-1,1.631243907E0
6.273925167E0,-1.720202021E0,4.739327623E-1,-4.618230325E-1,1.843091905E0
6.283973167E0,-1.836031854E0,5.233564988E-1,-5.458071756E-1,1.985653663E0
6.294020167E0,-1.935660808E0,5.477815611E-1,-5.559532642E-1,2.087086829E0
6.304068167E0,-2.045517418E0,6.150005675E-1,-4.633006239E-1,2.185638276E0
6.314115167E0,-2.150938185E0,6.365547200E-1,-3.840772837E-1,2.275797080E0
6.324163167E0,-2.268506835E0,5.882869781E-1,-3.135709727E-1,2.364430498E0
6.334210167E0,-2.355790708E0,4.905713799E-1,-2.040923846E-1,2.414966633E0
6.344258167E0,-2.377536503E0,3.956299932E-1,-2.890863419E-2,2.410402170E0
6.354306167E0,-2.357130743E0,3.432424492E-1,2.075054044E-1,2.391012173E0
6.364353167E0,-2.240001658E0,2.245018715E-1,4.363853055E-1,2.293129009E0
6.374401167E0,-2.097936391E0,1.085227145E-1,6.408197522E-1,2.196306954E0
6.384448167E0,-1.957834911E0,3.499193117E-3,9.126807815E-1,2.160119440E0
6.394496167E0,-1.810966595E0,-1.440813871E-1,1.282795499E0,2.223943288E0
6.404544167E0,-1.650728620E0,-3.293105809E-1,1.781181171E0,2.450705368E0
6.414591167E0,-1.520625441E0,-5.324272113E-1,2.194676381E0,2.722569537E0
6.424639167E0,-1.421181552E0,-7.096741518E-1,2.425400494E0,2.899303703E0
6.434686167E0,-1.278985746E0,-8.737065310E-1,2.517568401E0,2.955895514E0
6.444734167E0,-1.160733484E0,-9.715868014E-1,2.387008846E0,2.826498605E0
6.454782167E0,-1.150059976E0,-1.059267774E0,1.892696929E0,2.454992430E0
6.464829167E0,-1.203800785E0,-1.096597129E0,1.130976053E0,1.982616560E0
6.474877167E0,-1.260705595E0,-1.034053045E0,3.083616883E-1,1.659437021E0
6.484924167E0,-1.293474269E0,-8.696075597E-1,-3.466399008E-1,1.596700414E0
6.494972167E0,-1.268519230E0,-6.600054900E-1,-8.498372465E-1,1.663421663E0
6.505019167E0,-1.213492545E0,-4.884851664E-1,-1.213811218E0,1.784522230E0
6.515067167E0,-1.142053749E0,-3.631104840E-1,-1.434078755E0,1.868881448E0
6.525115167E0,-1.079696922E0,-3.324109939E-1,-1.544404020E0,1.913485377E0
6.535162167E0,-1.060573749E0,-3.493872151E-1,-1.611783825E0,1.960799633E0
6.545210167E0,-1.081522057E0,-4.259427631E-1,-1.547327043E0,1.935287621E0
6.555257167E0,-1.086688949E0,-5.030244143E-1,-1.323894993E0,1.785111869E0
6.565305167E0,-1.067051148E0,-6.590276894E-1,-1.060260996E0,1.642275564E0
6.575353167E0,-1.023683593E0,-7.889232928E-1,-8.930393994E-1,1.570938391E0
6.585400167E0,-1.001260617E0,-8.903778930E-1,-8.183266014E-1,1.570017211E0
6.595448167E0,-9.878541208E-1,-9.588256918E-1,-7.713307750E-1,1.578022064E0
6.605495167E0,-9.652101935E-1,-1.019636004E0,-6.654464704E-1,1.553739780E0
6.615543167E0,-9.104454640E-1,-1.050952375E0,-4.530346674E-1,1.462413159E0
6.625590167E0,-7.603320893E-1,-1.086486489E0,-1.237457943E-1,1.331867410E0
6.635638167E0,-5.508313591E-1,-1.155862972E0,3.875873673E-1,1.337781135E0
6.645686167E0,-3.020598881E-1,-1.286736084E0,8.682922286E-1,1.581411180E0
6.655733167E0,-1.790828200E-1,-1.502341051E0,1.221857572E0,1.944745540E0
6.665781167E0,-1.090436101E-1,-1.694188928E0,1.410774677E0,2.207363092E0
6.675828167E0,-1.036898263E-1,-1.853594844E0,1.445951527E0,2.353155593E0
6.685876167E0,-8.165982010E-2,-1.927640913E0,1.347221290E0,2.353183593E0
6.695924167E0,-1.621548017E-2,-1.901082859E0,1.243748962E0,2.271847368E0
6.705971167E0,2.301038513E-1,-1.771016371E0,1.025937256E0,2.059610163E0
6.716019167E0,6.950529698E-1,-1.617611306E0,5.927287424E-1,1.857711585E0
6.726066167E0,9.649287231E-1,-1.431307175E0,2.416595757E-2,1.726357919E0
6.736114167E0,1.276307136E0,-1.182906491E0,-2.696811873E-1,1.760953041E0
6.746162167E0,1.657925373E0,-6.480363858E-1,-3.440647870E-1,1.813021864E0
6.756209167E0,1.889372202E0,-2.194379635E-1,-4.082180983E-1,1.945384886E0
6.766257167E0,3.165815286E0,3.029021430E-1,-5.358768493E-1,3.225104670E0
6.776304167E0,4.351645531E0,1.164936243E0,-2.864755601E-1,4.513974249E0
6.786352167E0,4.375443406E0,1.708458619E0,5.295606869E-1,4.726919755E0
6.796399167E0,3.742296663E0,1.733932599E0,2.640842324E-1,4.132922338E0
6.806447167E0,3.323405349E0,1.814695511E0,-6.308999509E-1,3.838772937E0
6.816495167E0,2.688938597E0,1.392384453E0,-1.261642612E0,3.280376095E0
6.826542167E0,1.696598273E0,4.913194580E-1,-1.652684514E0,2.418926748E0
6.836590167E0,6.628034558E-1,-5.709496182E-1,-1.875427178E0,2.069424796E0
6.846637167E0,2.170632631E-3,-1.222318917E0,-1.820006098E0,2.192370964E0
6.856685167E0,-3.733619687E-1,-1.908649741E0,-1.588990794E0,2.511420860E0
6.866733167E0,-2.076554585E-1,-2.211305424E0,-9.449252522E-1,2.413685191E0
6.876780167E0,-1.415339745E-1,-2.069936560E0,-8.883265436E-2,2.076670525E0
6.886828167E0,9.123556763E-3,-2.121103644E0,8.456418693E-2,2.122808284E0
6.896875167E0,-1.089282189E-1,-2.065067584E0,4.715194702E-1,2.121013931E0
6.906923167E0,-3.122116412E-1,-2.187247932E0,8.654680234E-1,2.372881060E0
6.916971167E0,-2.465659744E-1,-2.746966950E0,-4.744799155E-1,2.798527004E0
6.927018167E0,-6.963813110E-1,-2.273328741E0,-8.155363101E-1,2.513577126E0
6.937066167E0,-3.838300927E-1,-1.800308290E0,-9.558151066E-1,2.074130661E0
6.947113167E0,2.804543898E-1,-1.541392850E0,-1.180166924E0,1.961463880E0
6.957161167E0,5.885473984E-1,-1.319434737E0,-1.357748033E0,1.982618417E0
6.967209167E0,9.494110899E-1,-1.093710140E0,-1.098453255E0,1.817741137E0
6.977256167E0,2.448986262E0,-1.009709478E0,-2.436131305E-1,2.660149300E0
6.987304167E0,4.315104234E0,-8.847878087E-1,4.379406649E-1,4.426597569E0
6.997351167E0,4.487423433E0,-9.192646001E-1,4.314081556E-1,4.600883553E0
7.007399167E0,3.950646697E0,-4.078720893E-1,5.772002918E-1,4.013368802E0
7.017446167E0,3.476999425E0,9.996649848E-1,5.766962618E-1,3.663527489E0
7.027494167E0,2.764634019E0,1.873360333E0,2.629767698E-1,3.349901040E0
7.037542000E0,2.179136967E0,1.672998180E0,-3.552826703E-1,2.770160033E0
7.047589000E0,1.878675598E0,5.673677601E-1,-8.327049047E-1,2.131836212E0
7.057637000E0,1.547962051E0,-7.398822565E-1,-1.374184556E0,2.198180033E0
7.067684000E0,1.390580295E0,-1.456734962E0,-1.808903405E0,2.707013453E0
7.077732000E0,1.128779254E0,-1.277570866E0,-2.155210599E0,2.747956086E0
7.087780000E0,9.547278169E-1,-1.187888757E0,-1.881200718E0,2.421053706E0
7.097827000E0,1.148712266E0,-6.090800424E-1,-4.094021595E-1,1.363131870E0
7.107875000E0,1.532819809E0,2.342023292E-1,1.957308662E-1,1.562913264E0
7.117922000E0,1.849365260E0,6.925290191E-1,-1.253040773E-1,1.978749459E0
7.127970000E0,2.288098515E0,5.190169877E-1,-4.599834985E-1,2.390890685E0
7.138018000E0,1.802464159E0,2.326802990E-1,-8.772729671E-1,2.018074583E0
7.148065000E0,1.099478637E0,3.484098530E-1,-1.195998260E0,1.661521754E0
7.158113000E0,2.830112310E-1,4.317791614E-1,-1.076250207E0,1.193667923E0
7.168160000E0,3.513772418E-1,9.870035702E-1,-4.568020284E-1,1.142939240E0
7.178208000E0,1.168305993E0,2.052155178E0,-1.202105677E-1,2.364472530E0
7.188256000E0,1.655511497E0,2.750751852E0,6.694921589E-1,3.279569151E0
7.198303000E0,-2.612974495E-1,2.323995449E0,7.503802013E-1,2.456074439E0
7.208351000E0,-2.790756748E0,1.711046889E0,2.978127265E-1,3.287049909E0
7.218398000E0,-2.707193019E0,1.475023591E0,6.442526525E-1,3.149547605E0
7.228446000E0,-1.197518536E0,1.383130357E0,1.251883609E0,2.216824937E0
7.238493000E0,2.202614342E-1,1.226790867E0,1.892163078E0,2.265791704E0
7.248541000E0,5.588479283E-1,6.522583678E-1,2.215649174E0,2.376310849E0
7.258589000E0,6.906435844E-1,3.830686390E-2,2.024959778E0,2.139840666E0
7.268636000E0,1.207729822E0,-4.545692691E-1,1.389051102E0,1.895971388E0
7.278684000E0,1.840273279E0,-6.360384840E-1,9.151512301E-1,2.151430330E0
7.288731000E0,2.192919585E0,-6.375853649E-1,5.073453605E-1,2.339403924E0
7.298779000E0,2.304545710E0,-5.479908183E-1,6.247399092E-2,2.369626102E0
7.308827000E0,2.120843297E0,-4.168857184E-1,-2.642970711E-1,2.177526793E0
7.318874000E0,1.837396887E0,-2.489557314E-1,-5.751099122E-1,1.941328846E0
7.328922000E0,1.532044322E0,-9.767013609E-2,-8.496325940E-1,1.754586790E0
7.338969000E0,1.203506816E0,-3.859454691E-2,-1.142154760E0,1.659649267E0
7.349017000E0,9.183343081E-1,-8.200135231E-2,-1.436442785E0,1.706877265E0
7.359065000E0,7.133059305E-1,-2.103775567E-1,-1.707558879E0,1.862477219E0
7.369112000E0,6.502152045E-1,-4.476987907E-1,-1.900296555E0,2.057751447E0
7.379160000E0,6.939384905E-1,-6.782334539E-1,-1.933891148E0,2.163674240E0
7.389207000E0,7.109252366E-1,-6.751891011E-1,-1.695213652E0,1.958326924E0
7.399255000E0,8.126694202E-1,-4.096088585E-1,-1.223474911E0,1.524828470E0
7.409303000E0,9.030622579E-1,-7.165178061E-3,-6.407232732E-1,1.107293590E0
7.419350000E0,9.664241485E-1,1.855432624E-1,-1.153293121E-1,9.908091579E-1
7.429398000E0,9.748974949E-1,1.051995957E-1,1.782652330E-1,9.966296071E-1
7.439445000E0,9.249657816E-1,-4.706219226E-2,2.449416178E-1,9.580046676E-1
7.449493000E0,7.494829461E-1,-1.392859393E-1,1.999812073E-1,7.881102351E-1
7.459541000E0,5.425523230E-1,-2.450682101E-1,5.736235499E-2,5.980902027E-1
7.469588000E0,2.442566165E-1,-6.203773016E-1,-2.431377518E-1,7.096796865E-1
7.479636000E0,2.448846075E-1,-6.272483647E-1,-2.945710301E-1,7.349701176E-1
7.489683000E0,3.400524276E-1,-2.585995442E-1,-3.086470324E-1,5.270411449E-1
7.499731000E0,5.966662574E-1,1.272029606E-1,-2.543322462E-1,6.609660410E-1
7.509778000E0,9.306469363E-1,2.680860668E-1,-2.326285511E-1,9.960370987E-1
7.519826000E0,1.134056951E0,1.974321136E-1,-1.533946860E-1,1.161290031E0
7.529874000E0,1.170072583E0,1.009241116E-1,1.134769142E-2,1.174471922E0
7.539921000E0,1.121769612E0,-1.927066863E-2,1.209654433E-1,1.128437441E0
7.549969000E0,1.059697617E0,-1.699317813E-1,2.696665692E-1,1.106596543E0
7.560016000E0,9.888036355E-1,-2.960418972E-1,4.325740904E-1,1.119148685E0
7.570064000E0,9.073761874E-1,-3.058684355E-1,5.695538878E-1,1.114126867E0
7.580112000E0,7.347675508E-1,-3.048217839E-1,7.370918190E-1,1.084483298E0
7.590159000E0,4.917695475E-1,-4.432528603E-1,9.000835401E-1,1.117345410E0
7.600207000E0,1.249476895E-1,-7.256482333E-1,1.153140509E0,1.368177736E0
7.610254000E0,-3.301972380E-1,-9.677209148E-1,1.521373007E0,1.833054776E0
7.620302000E0,-6.868002096E-1,-9.829970580E-1,1.837877528E0,2.194486626E0
7.630350000E0,-8.886721140E-1,-8.733383757E-1,2.112809515E0,2.452839598E0
7.640397000E0,-9.865983582E-1,-7.410211480E-1,2.236716692E0,2.554484336E0
7.650445000E0,-1.111877292E0,-6.522262082E-1,2.244012263E0,2.587906717E0
7.660492000E0,-1.414970055E0,-6.536502975E-1,2.204680383E0,2.700002696E0
7.670540000E0,-1.795043750E0,-7.225328368E-1,1.944016187E0,2.742888021E0
7.680588000E0,-2.040101581E0,-8.049931955E-1,1.378094004E0,2.590206863E0
7.690635000E0,-2.045038678E0,-9.566796175E-1,7.232374263E-1,2.370757571E0
7.700683000E0,-1.675626942E0,-1.038310549E0,1.050025445E-1,1.974041534E0
7.710730000E0,-1.174936370E0,-8.378864148E-1,-3.682535487E-1,1.489342068E0
7.720778000E0,-7.376778562E-1,-6.216166189E-1,-6.580070579E-1,1.167711064E0
7.730826000E0,-2.773213785E-1,-5.092761111E-1,-8.395344526E-1,1.020336906E0
7.740873000E0,1.546486945E-1,-3.895771748E-1,-9.699595213E-1,1.056649453E0
7.750921000E0,5.014429618E-1,-2.258820337E-1,-9.776649821E-1,1.121738184E0
7.760968000E0,8.251554184E-1,-1.192463619E-1,-9.068183631E-1,1.231836313E0
7.771016000E0,1.365964394E0,-2.898622674E-1,-6.090348727E-1,1.523417978E0
7.781064000E0,1.979083693E0,-6.518183649E-3,-4.403146344E-1,2.027484088E0
7.791111000E0,1.785370116E0,2.690917879E-2,-2.776883644E-1,1.807036630E0
7.801159000E0,1.046469169E0,-4.550874786E-1,-1.479696393E-1,1.150694290E0
7.811206000E0,3.336544408E-1,-6.849067350E-1,-1.145223963E-1,7.704141099E-1
7.821254000E0,-1.047912499E-1,-6.446352066E-1,4.194675565E-2,6.544427293E-1
7.831301000E0,-4.464185429E-1,-5.220414600E-1,1.661386925E-1,7.066957383E-1
7.841349000E0,-7.735461389E-1,-4.958854026E-1,1.928487736E-1,9.388645328E-1
7.851397000E0,-1.034685275E0,-5.394315179E-1,2.134110922E-1,1.186214262E0
7.861444000E0,-1.227214352E0,-5.646219076E-1,2.481090546E-1,1.373466806E0
7.871492000E0,-1.185521219E0,-5.080506809E-1,2.274613667E-1,1.309700244E0
7.881539000E0,-9.944000056E-1,-4.004595740E-1,1.993321663E-1,1.090381839E0
7.891587000E0,-8.737049961E-1,-3.016945468E-1,1.405711573E-1,9.349546888E-1
7.901635000E0,-8.603157493E-1,-2.630555610E-1,-8.383153081E-3,8.996731040E-1
7.911682000E0,-8.727199595E-1,-2.799015355E-1,-2.858119011E-3,9.165114108E-1
7.921730000E0,-8.518975861E-1,-3.069092399E-1,9.820749521E-2,9.108059567E-1
7.931777000E0,-7.644481637E-1,-3.238875076E-1,1.342807227E-1,8.410204665E-1
7.941825000E0,-5.653201383E-1,-2.954622920E-1,1.262226748E-1,6.502437915E-1
7.951873000E0,-2.405180530E-1,-2.953329223E-1,3.814957380E-2,3.827869627E-1
7.961920000E0,5.386074990E-2,-2.414417669E-1,-7.129159212E-2,2.574443596E-1
7.971968000E0,1.886051568E-1,-1.012503862E-1,-1.631876028E-1,2.691723232E-1
7.982015000E0,1.120804529E-1,-5.842830241E-2,-9.153816104E-2,1.560613000E-1
7.992063000E0,-1.212613124E-1,-1.124036577E-1,3.560545027E-2,1.691349646E-1
8.002111000E0,-1.608751751E-1,-9.597912133E-3,3.582472086E-2,1.650949803E-1
8.012158000E0,4.750716537E-2,1.496249861E-1,-5.714249969E-2,1.670623611E-1
8.022206000E0,-1.254932347E-1,-3.425228763E-1,-1.169975227E-1,3.830912333E-1
8.032252792E0,-1.265030781E0,-1.734849881E0,-6.198545605E-1,2.234776647E0
8.042300792E0,-6.694433346E-1,-1.965129313E-1,-6.086355078E-1,9.258557619E-1
8.052348792E0,4.395240909E-1,1.035875768E0,-3.649668288E-1,1.182971183E0
8.062395792E0,7.148054489E-1,8.656071872E-1,-6.907058573E-1,1.318065709E0
8.072443792E0,6.944325802E-1,4.448886189E-1,-1.181860278E0,1.441164879E0
8.082490792E0,6.281657928E-1,2.776114735E-1,-1.644138808E0,1.781811666E0
8.092538792E0,5.193789303E-1,2.919880226E-1,-1.794420437E0,1.890755453E0
8.102586792E0,4.433034387E-1,3.750570765E-1,-1.615621938E0,1.716805171E0
8.112633792E0,1.634679767E-1,3.814773193E-1,-1.209797105E0,1.279005770E0
8.122681792E0,-3.007114837E-1,4.180957997E-1,-7.499375671E-1,9.097460353E-1
8.132728792E0,-7.276836491E-1,5.623825702E-1,-3.263582486E-1,9.758623647E-1
8.142776792E0,-1.012586893E0,7.593966079E-1,-9.027399302E-2,1.268922700E0
8.152824792E0,-1.118097560E0,9.945827311E-1,4.863070786E-2,1.497231415E0
8.162871792E0,-7.973330507E-1,1.172680149E0,8.008346558E-3,1.418091273E0
8.172919792E0,-5.104359064E-1,1.276673464E0,-1.183891600E-1,1.380020269E0
8.182966792E0,-2.436461672E-1,1.378396890E0,-1.785043842E-1,1.411100725E0
8.193014792E0,1.016880503E-1,1.569487114E0,-3.761835426E-1,1.617140785E0
8.203062792E0,8.545191121E-1,1.988671665E0,-7.083053917E-1,2.277435934E0
8.213109792E0,1.623318920E0,2.361291914E0,-1.114994443E0,3.074748189E0
8.223157792E0,1.846056029E0,2.153141562E0,-1.497292419E0,3.207152325E0
8.233204792E0,1.265864301E0,1.325110922E0,-1.620214341E0,2.446104228E0
8.243252792E0,5.924273184E-1,4.686519957E-1,-1.577317412E0,1.748866787E0
8.253300792E0,3.506445126E-1,5.257114649E-2,-1.531816719E0,1.572316050E0
8.263347792E0,4.258455531E-1,1.991070485E-1,-1.425098017E0,1.500630671E0
8.273395792E0,5.643001646E-1,5.384893852E-1,-1.220405123E0,1.448376387E0
8.283442792E0,7.353136808E-2,1.841194654E-1,-1.384901333E0,1.399020565E0
8.293490792E0,1.494712043E-1,2.803500170E-1,-1.175566335E0,1.217741344E0
8.303538792E0,4.693809973E-1,8.546024349E-1,-7.299757576E-1,1.218001826E0
8.313585792E0,7.188448517E-1,1.238648728E0,-5.439144319E-1,1.531937173E0
8.323633792E0,1.129903527E0,1.354797820E0,-5.229504097E-1,1.840009849E0
8.333680792E0,1.392450234E0,1.393266652E0,-4.588052845E-1,2.022526120E0
8.343728792E0,1.326047938E0,1.367466690E0,-4.210597533E-1,1.950809985E0
8.353775792E0,1.128573432E0,1.225522314E0,-4.727970868E-1,1.731796760E0
8.363823792E0,7.843465309E-1,9.764806286E-1,-3.736534524E-1,1.307031293E0
8.373871792E0,1.065370001E-1,6.699900493E-1,-1.191229856E-1,6.887866754E-1
8.383918792E0,-4.983450338E-1,4.187512726E-1,-6.783530295E-2,6.544478813E-1
8.393966792E0,-8.082384002E-1,3.588892329E-1,-8.095937848E-2,8.880344667E-1
8.404013792E0,-8.360714391E-1,4.301995361E-1,6.235119939E-2,9.423241290E-1
8.414061792E0,-6.984069327E-1,5.623507029E-1,2.356422061E-1,9.271126177E-1
8.424109792E0,-4.711179127E-1,6.194952491E-1,4.297124630E-1,8.890327621E-1
8.434156792E0,-2.903032936E-1,6.616583517E-1,5.677839357E-1,9.189376335E-1
8.444204792E0,-2.715147279E-1,6.817148861E-1,5.285613978E-1,9.043409670E-1
8.454251792E0,-3.153579549E-1,5.674725714E-1,4.609061891E-1,7.961848241E-1
8.464299792E0,-3.046102609E-1,4.199859121E-1,4.557770115E-1,6.905854485E-1
8.474347792E0,-3.050522373E-1,3.778678331E-1,4.062861782E-1,6.331740877E-1
8.484394792E0,-3.000255322E-1,3.774579433E-1,2.770363998E-1,5.560926053E-1
8.494442792E0,-2.334122973E-1,3.061300984E-1,6.045787096E-2,3.896820394E-1
8.504489792E0,-9.049026690E-2,1.862563303E-1,-1.535654247E-1,2.578027320E-1
8.514537792E0,1.012475357E-1,1.180786729E-1,-3.348788112E-1,3.692390211E-1
8.524585792E0,2.900579298E-1,1.095689276E-1,-4.268806565E-1,5.276040631E-1
8.534632792E0,3.202876693E-1,2.294213533E-2,-3.857940263E-1,5.019437851E-1
8.544680792E0,2.687336460E-1,-9.770609647E-2,-3.953214794E-1,4.878968394E-1
8.554727792E0,2.255726429E-1,-1.380325887E-1,-4.480791521E-1,5.202988942E-1
8.564775792E0,2.646265617E-1,-1.463420668E-1,-5.546814948E-1,6.317553153E-1
8.574823792E0,3.556660283E-1,-1.093116501E-1,-6.826478094E-1,7.774672933E-1
8.584870792E0,4.971717169E-1,-4.512150139E-2,-7.888461095E-1,9.335383498E-1
8.594918792E0,6.760728347E-1,2.607975125E-2,-6.958595932E-1,9.705540709E-1
8.604965792E0,7.879240036E-1,1.289387065E-1,-5.857091600E-1,9.902043454E-1
8.615013792E0,6.946691000E-1,2.135245281E-1,-6.769128603E-1,9.931610660E-1
8.625061792E0,4.737310334E-1,1.218878415E-1,-6.689010054E-1,8.286774360E-1
8.635108792E0,2.008582896E-1,-5.602538913E-2,-3.762040079E-1,4.301306223E-1
8.645156792E0,5.093918860E-2,-1.523930579E-1,1.081091702E-2,1.610444689E-1
8.655203792E0,5.472876906E-2,-1.873459589E-1,3.663081801E-1,4.150607537E-1
8.665251792E0,5.868119448E-3,-2.232060555E-1,6.774999207E-1,7.133453025E-1
8.675299792E0,-1.274929824E-1,-2.966546854E-1,9.194033253E-1,9.744541742E-1
8.685346792E0,-2.449233453E-1,-3.890547261E-1,1.023360388E0,1.121881236E0
8.695394792E0,-2.774959910E-1,-5.044676533E-1,1.003853492E0,1.157243912E0
8.705441792E0,-1.705463237E-1,-5.469552764E-1,1.011780562E0,1.162732139E0
8.715489792E0,-8.092107922E-3,-4.696869528E-1,9.632252830E-1,1.071668914E0
8.725537792E0,8.657036662E-2,-3.986824590E-1,6.897053987E-1,8.013336811E-1
8.735584792E0,1.277192697E-1,-4.333646339E-1,3.712473232E-1,5.847578069E-1
8.745632792E0,2.360532653E-1,-4.128420764E-1,1.976534307E-1,5.150015561E-1
8.755679792E0,3.636808799E-1,-2.365251356E-1,1.705895931E-1,4.661638462E-1
8.765727792E0,4.669408080E-1,-3.901291519E-2,1.883125037E-1,5.049924007E-1
8.775775792E0,4.644092560E-1,7.958440572E-2,2.793735319E-1,5.477766014E-1
8.785822792E0,3.840186654E-1,1.350931934E-1,4.191167235E-1,5.842767617E-1
8.795870792E0,2.871297173E-1,1.560858670E-1,7.337074506E-1,8.032016531E-1
8.805917792E0,1.840152387E-1,1.442674747E-1,1.218125879E0,1.240365014E0
8.815965792E0,-3.332766742E-2,8.315325379E-2,1.733629274E0,1.735942297E0
8.826013792E0,-2.875200190E-1,-2.641187310E-3,2.268344867E0,2.286495828E0
8.836060792E0,-5.140456849E-1,-9.821012646E-2,2.652085935E0,2.703229181E0
8.846108792E0,-6.795207185E-1,-1.835674882E-1,2.842442626E0,2.928297374E0
8.856155792E0,-7.589813094E-1,-2.852587545E-1,2.864301272E0,2.976851854E0
8.866203792E0,-8.013090111E-1,-3.303805482E-1,2.847135016E0,2.976142678E0
8.876251792E0,-6.800713800E-1,-4.395597589E-1,2.612159978E0,2.734792426E0
8.886298792E0,-4.095305058E-1,-5.232603121E-1,2.186853976E0,2.285573649E0
8.896346792E0,-1.255079989E-1,-5.617417154E-1,1.759802581E0,1.851542907E0
8.906393792E0,1.271598373E-1,-6.588569507E-1,1.309066454E0,1.471025862E0
8.916441792E0,3.374327289E-1,-7.939758718E-1,8.931013799E-1,1.241728073E0
8.926489792E0,5.446793939E-1,-9.173155770E-1,5.655502993E-1,1.207472837E0
8.936536792E0,7.321795732E-1,-9.341494185E-1,3.231826258E-1,1.230109374E0
8.946584792E0,8.209078547E-1,-9.726176655E-1,1.409085417E-1,1.280519444E0
8.956631792E0,8.431619190E-1,-1.092846067E0,-2.651653826E-2,1.380557016E0
8.966679792E0,8.323543641E-1,-1.201028328E0,-1.511575413E-1,1.469058009E0
8.976727792E0,8.474476357E-1,-1.274997360E0,-2.051554084E-1,1.544627626E0
8.986774792E0,8.656928489E-1,-1.348686603E0,-2.426641273E-1,1.620884185E0
8.996822792E0,8.750136030E-1,-1.412411313E0,-2.853347683E-1,1.685814478E0
9.006869792E0,8.244078518E-1,-1.549458354E0,-3.507779753E-1,1.789836496E0
9.016917792E0,8.066038111E-1,-1.685180123E0,-4.422991794E-1,1.919914143E0
9.026965792E0,8.616623631E-1,-1.759957240E0,-5.693585908E-1,2.040607929E0
9.037013625E0,9.594981216E-1,-1.733488356E0,-6.881997406E-1,2.097435913E0
9.047061625E0,1.042868453E0,-1.678569845E0,-7.824837542E-1,2.125429877E0
9.057108625E0,1.059566201E0,-1.622889734E0,-9.081953824E-1,2.140390263E0
9.067156625E0,1.036686046E0,-1.585906388E0,-1.081752437E0,2.181743652E0
9.077204625E0,1.018249775E0,-1.570222693E0,-1.168146218E0,2.206127262E0
9.087251625E0,1.056347455E0,-1.521463932E0,-1.155358942E0,2.183020093E0
9.097299625E0,1.137877814E0,-1.447874968E0,-1.071974723E0,2.130783342E0
9.107346625E0,1.242343292E0,-1.425398271E0,-1.006671265E0,2.142093397E0
9.117394625E0,1.304485453E0,-1.397179316E0,-8.946894836E-1,2.110512168E0
9.127442625E0,1.318730147E0,-1.393141522E0,-7.494627732E-1,2.059511337E0
9.137489625E0,1.372503189E0,-1.395084551E0,-6.533193451E-1,2.063214016E0
9.147537625E0,1.451671419E0,-1.324442585E0,-5.197975910E-1,2.032655309E0
9.157584625E0,1.515506057E0,-1.241908551E0,-3.284918976E-1,1.986706417E0
9.167632625E0,1.567635885E0,-1.164384704E0,-1.638793284E-1,1.959625077E0
9.177680625E0,1.614681851E0,-1.065698614E0,3.658544362E-2,1.935006334E0
9.187727625E0,1.577945111E0,-9.400036508E-1,2.054185331E-1,1.848165147E0
9.197775625E0,1.449725904E0,-8.452761260E-1,3.956810832E-1,1.724169495E0
9.207822625E0,1.279624700E0,-7.687015745E-1,5.510223073E-1,1.591215594E0
9.217870625E0,1.185589047E0,-7.260607544E-1,7.298605675E-1,1.570185357E0
9.227918625E0,1.130622881E0,-6.347152591E-1,9.565331447E-1,1.611250203E0
9.237965625E0,1.049037558E0,-5.790415800E-1,1.149646797E0,1.660559155E0
9.248013625E0,9.588404560E-1,-5.874694642E-1,1.270551429E0,1.696701602E0
9.258060625E0,9.307941400E-1,-6.317609534E-1,1.365476298E0,1.769187710E0
9.268108625E0,9.500301638E-1,-5.562707680E-1,1.460769541E0,1.829164326E0
9.278156625E0,9.434333351E-1,-4.740703180E-1,1.505086173E0,1.838503063E0
9.288203625E0,8.824075533E-1,-4.356576195E-1,1.446483623E0,1.749501507E0
9.298251625E0,7.151169594E-1,-4.241669637E-1,1.450207715E0,1.671649573E0
9.308298625E0,5.473831464E-1,-4.664964196E-1,1.341876351E0,1.522458327E0
9.318346625E0,4.820693091E-1,-4.903083283E-1,1.118391091E0,1.312856316E0
9.328394625E0,5.096896555E-1,-4.716793916E-1,8.439795059E-1,1.092962213E0
9.338441625E0,6.633522901E-1,-4.894356313E-1,5.911067247E-1,1.014391768E0
9.348489625E0,8.605028602E-1,-5.644700262E-1,3.186644822E-1,1.077329400E0
9.358536625E0,1.034279478E0,-6.257295504E-1,1.408126473E-2,1.208912648E0
9.368584625E0,1.197499825E0,-6.638142201E-1,-3.080669886E-1,1.403410282E0
9.378632625E0,1.314654931E0,-6.882778010E-1,-6.160234648E-1,1.606713673E0
9.388679625E0,1.396106937E0,-7.039120862E-1,-9.084228390E-1,1.808269576E0
9.398727625E0,1.487512366E0,-7.285428974E-1,-1.169586972E0,2.027659113E0
9.408774625E0,1.585261440E0,-7.566984102E-1,-1.377799889E0,2.232482665E0
9.418822625E0,1.709232937E0,-7.216811898E-1,-1.536861697E0,2.409200043E0
9.428870625E0,1.799936700E0,-6.869873205E-1,-1.684885715E0,2.559406880E0
9.438917625E0,1.801891278E0,-6.639756033E-1,-1.770671386E0,2.612078279E0
9.448965625E0,1.802948601E0,-6.396520633E-1,-1.875559909E0,2.679086298E0
9.459012625E0,1.765588401E0,-5.844254038E-1,-1.969894209E0,2.709121379E0
9.469060625E0,1.662943454E0,-5.229433930E-1,-2.008472968E0,2.659476337E0
9.479108625E0,1.516455645E0,-4.985806766E-1,-2.022403375E0,2.576496813E0
9.489155625E0,1.375667995E0,-4.128385681E-1,-2.042576269E0,2.497001387E0
9.499203625E0,1.236917368E0,-2.472825506E-1,-1.993157941E0,2.358769131E0
9.509250625E0,1.007169155E0,-8.494089380E-2,-1.808099413E0,2.071431425E0
9.519298625E0,6.486718319E-1,7.401025504E-2,-1.480685742E0,1.618234510E0
9.529345625E0,3.027015835E-1,1.829479757E-1,-1.175430679E0,1.227491545E0
9.539393625E0,-1.273772076E-2,2.840603676E-1,-8.095329738E-1,8.580187513E-1
9.549441625E0,-2.834695065E-1,4.034670894E-1,-3.976773226E-1,6.334728931E-1
9.559488625E0,-5.452245006E-1,4.903219230E-1,7.939817190E-2,7.375563802E-1
9.569536625E0,-9.103110512E-1,5.752232020E-1,5.163184977E-1,1.194207994E0
9.579584625E0,-1.270523217E0,6.095038924E-1,8.843375731E-1,1.663663783E0
9.589631625E0,-1.485572845E0,6.787559757E-1,1.198870997E0,2.026062196E0
9.599679625E0,-1.539137433E0,8.670632900E-1,1.488243268E0,2.309894113E0
9.609726625E0,-1.503889248E0,1.111966536E0,1.715022849E0,2.537608287E0
9.619774625E0,-1.532269440E0,1.327497463E0,1.889747009E0,2.771505531E0
9.629822625E0,-1.707137294E0,1.478291599E0,2.006928719E0,3.021163133E0
9.639869625E0,-1.933997275E0,1.635274429E0,2.037441244E0,3.250482232E0
9.649917625E0,-2.152639871E0,1.736376296E0,1.965169659E0,3.392750041E0
9.659964625E0,-2.347136536E0,1.779545412E0,1.845391785E0,3.475816830E0
9.670012625E0,-2.427522449E0,1.816160823E0,1.670800357E0,3.461629560E0
9.680060625E0,-2.395979352E0,1.919605231E0,1.491805392E0,3.413368516E0
9.690107625E0,-2.356446911E0,2.089336745E0,1.360934181E0,3.430788819E0
9.700155625E0,-2.380270953E0,2.191809199E0,1.298960711E0,3.486691312E0
9.710202625E0,-2.474394899E0,2.227886520E0,1.285637830E0,3.569169804E0
9.720250625E0,-2.552284489E0,2.185118669E0,1.280467138E0,3.595621755E0
9.730298625E0,-2.605741781E0,2.136081141E0,1.194611301E0,3.574888674E0
9.740345625E0,-2.673068084E0,2.103001395E0,1.033879529E0,3.554829775E0
9.750393625E0,-2.799022372E0,2.063850778E0,7.691713983E-1,3.561689334E0
9.760440625E0,-2.953436812E0,1.927237747E0,3.797591150E-1,3.547005966E0
9.770488625E0,-3.060730296E0,1.736595859E0,-4.097085536E-2,3.519305860E0
9.780536625E0,-3.168355317E0,1.555337729E0,-4.883401555E-1,3.563148463E0
9.790583625E0,-3.178466907E0,1.431412717E0,-9.025826401E-1,3.600867905E0
9.800631625E0,-3.023677952E0,1.309771190E0,-1.287177402E0,3.537648172E0
9.810678625E0,-2.721005312E0,1.136737899E0,-1.536290424E0,3.325091161E0
9.820726625E0,-2.327992898E0,9.904585437E-1,-1.631155066E0,3.010187022E0
9.830774625E0,-1.910906182E0,8.441406698E-1,-1.652193933E0,2.663434005E0
9.840821625E0,-1.526829921E0,6.983933379E-1,-1.554234944E0,2.287926818E0
9.850869625E0,-1.212856806E0,6.002692386E-1,-1.329883711E0,1.897349593E0
9.860916625E0,-1.010384393E0,5.056166312E-1,-1.031031935E0,1.529559299E0
9.870964625E0,-8.898924279E-1,3.589140835E-1,-7.183275193E-1,1.198633504E0
9.881012625E0,-8.499924901E-1,1.735430217E-1,-4.889786714E-1,9.958436397E-1
9.891059625E0,-8.433462524E-1,9.111935422E-3,-2.611898607E-1,8.829134002E-1
9.901107625E0,-8.216921125E-1,-1.143627673E-1,-7.609975755E-2,8.330953988E-1
9.911154625E0,-8.127803712E-1,-2.161353830E-1,-3.861501217E-3,8.410358772E-1
9.921202625E0,-8.029314673E-1,-2.811466270E-1,-8.666684568E-2,8.551336207E-1
9.931250625E0,-7.403481334E-1,-3.072309098E-1,-2.607115585E-1,8.428978036E-1
9.941297625E0,-6.696443327E-1,-2.773970269E-1,-4.527417219E-1,8.546038319E-1
9.951345625E0,-5.657090512E-1,-2.611576279E-1,-6.302637738E-1,8.862632012E-1
9.961392625E0,-4.849670430E-1,-2.463330359E-1,-7.316451377E-1,9.116894234E-1
9.971440625E0,-4.715953378E-1,-2.591743255E-1,-7.387442422E-1,9.139565356E-1
9.981488625E0,-5.520784606E-1,-2.924998002E-1,-6.733630157E-1,9.185665521E-1
9.991535625E0,-7.030120535E-1,-3.735156774E-1,-4.939166451E-1,9.368530092E-1
1.000158363E1,-8.297646323E-1,-4.832252305E-1,-3.349536556E-1,1.016961120E0
1.001163062E1,-8.982951692E-1,-5.549756098E-1,-1.604885280E-1,1.068030293E0
1.002167863E1,-9.541830026E-1,-5.827023024E-1,-5.702847898E-2,1.119490698E0
1.003172663E1,-9.731635031E-1,-5.804669850E-1,-8.012322664E-2,1.135961644E0
1.004177350E1,-1.020203914E0,-5.014037123E-1,-1.540799797E-1,1.147154022E0
1.005182150E1,-1.148938115E0,-3.748718660E-1,-2.544041669E-1,1.235034083E0
1.006186850E1,-1.340172764E0,-2.438250920E-1,-3.580209213E-1,1.408436258E0
1.007191650E1,-1.462182813E0,-1.781934585E-1,-4.541701967E-1,1.541428576E0
1.008196450E1,-1.517329658E0,-2.182616499E-1,-5.125581533E-1,1.616367315E0
1.009201150E1,-1.474406417E0,-3.084856492E-1,-4.498029113E-1,1.572056086E0
1.010205950E1,-1.322489176E0,-3.880055894E-1,-3.027694112E-1,1.411097188E0
1.011210650E1,-1.124938364E0,-4.606197486E-1,-1.951613474E-1,1.231155891E0
1.012215450E1,-9.866392887E-1,-5.298023962E-1,-9.614459753E-2,1.124006872E0
1.013220250E1,-9.744421430E-1,-6.116698473E-1,3.073939741E-2,1.150922414E0
1.014224950E1,-1.034622271E0,-7.560415486E-1,4.361438155E-3,1.281429315E0
1.015229750E1,-9.736651942E-1,-8.237643658E-1,-2.004641873E-1,1.291045131E0
1.016234450E1,-8.257303458E-1,-7.638895353E-1,-5.329795539E-1,1.244759025E0
1.017239250E1,-6.645478995E-1,-6.459773619E-1,-9.120481128E-1,1.300285516E0
1.018244050E1,-5.267021294E-1,-5.622754931E-1,-1.312157877E0,1.521619912E0
1.019248750E1,-4.026432167E-1,-5.251702320E-1,-1.720654303E0,1.843522867E0
1.020253550E1,-3.557513246E-1,-5.178604084E-1,-2.093133634E0,2.185393973E0
1.021258250E1,-2.843411802E-1,-5.266204146E-1,-2.437767355E0,2.510157096E0
1.022263050E1,-2.064656232E-1,-5.431499085E-1,-2.702042792E0,2.763815320E0
1.023267850E1,-9.594886199E-2,-5.384256506E-1,-2.888330989E0,2.939653767E0
1.024272550E1,-3.535592034E-2,-5.510068122E-1,-2.907387650E0,2.959351533E0
1.025277350E1,-3.933392733E-2,-5.903351846E-1,-2.903643093E0,2.963306599E0
1.026282050E1,-1.448514654E-1,-6.527012944E-1,-2.875415660E0,2.952120618E0
1.027286850E1,-3.229673021E-1,-6.322769701E-1,-2.829475256E0,2.917192532E0
1.028291650E1,-4.482952067E-1,-5.822629572E-1,-2.850031727E0,2.943243039E0
1.029296350E1,-4.234502412E-1,-5.345698504E-1,-2.931385208E0,3.009666804E0
1.030301150E1,-4.145360148E-1,-4.248486029E-1,-3.000106364E0,3.058263337E0
1.031305850E1,-4.384794858E-1,-3.506003661E-1,-2.966532821E0,3.019188940E0
1.032310650E1,-4.257726091E-1,-2.792225276E-1,-2.816485666E0,2.862138893E0
1.033315450E1,-4.277232403E-1,-2.271537300E-1,-2.500912607E0,2.547373128E0
1.034320150E1,-4.127593383E-1,-2.073864866E-1,-2.061024234E0,2.112155373E0
1.035324950E1,-3.721261597E-1,-2.263645752E-1,-1.483487728E0,1.546109517E0
1.036329650E1,-3.262263939E-1,-2.581762058E-1,-7.920644170E-1,8.946757256E-1
1.037334450E1,-4.021381634E-1,-1.944884790E-1,-4.213562071E-2,4.486828295E-1
1.038339250E1,-5.331561399E-1,-1.550294213E-1,7.605900246E-1,9.416935682E-1
1.039343950E1,-5.772239730E-1,-1.854110422E-1,1.666875122E0,1.773707259E0
1.040348750E1,-5.328991547E-1,-2.516025832E-1,2.536979987E0,2.604525451E0
1.041353450E1,-4.030389270E-1,-3.207941844E-1,3.438655724E0,3.477024946E0
1.042358250E1,-1.661860549E-1,-2.953490387E-1,4.281615475E0,4.295006396E0
1.043363050E1,3.753532380E-2,-1.685699830E-1,4.934959964E0,4.937980820E0
1.044367750E1,1.917331249E-1,-3.288521592E-2,5.287039529E0,5.290617167E0
1.045372550E1,3.310833836E-1,1.161333773E-2,5.361294490E0,5.371520240E0
1.046377250E1,4.935316059E-1,-1.695571940E-2,5.123598742E0,5.147341548E0
1.047382050E1,7.418917984E-1,-3.881984744E-3,4.599461347E0,4.658912233E0
1.048386850E1,1.004106968E0,6.146744756E-2,3.957851052E0,4.083698568E0
1.049391550E1,1.269785152E0,2.362574793E-1,3.292431479E0,3.536704252E0
1.050396350E1,1.486124530E0,4.093668569E-1,2.616853538E0,3.037115371E0
1.051401050E1,1.614871740E0,5.262168470E-1,1.984452606E0,2.612042697E0
1.052405850E1,1.664811347E0,6.003892892E-1,1.473995942E0,2.303199548E0
1.053410650E1,1.675824285E0,6.392876355E-1,1.095808559E0,2.101873477E0
1.054415350E1,1.633887762E0,6.348006284E-1,7.840239108E-1,1.920222526E0
1.055420150E1,1.547992749E0,6.114741848E-1,5.352026653E-1,1.748320372E0
1.056424850E1,1.377607808E0,5.831422688E-1,4.443041897E-1,1.560533368E0
1.057429650E1,1.148740771E0,5.278281204E-1,4.320273757E-1,1.335984857E0
1.058434450E1,9.887208974E-1,4.683705984E-1,4.029918569E-1,1.165908430E0
1.059439150E1,8.760125998E-1,4.453645457E-1,3.747012734E-1,1.051736040E0
1.060443950E1,8.108111751E-1,3.604365523E-1,3.261249447E-1,9.453500672E-1
1.061448750E1,8.153699568E-1,2.698583214E-1,2.067306483E-1,8.833964235E-1
1.062453450E1,8.047335792E-1,2.306681259E-1,7.491978943E-2,8.404861049E-1
1.063458250E1,8.152401486E-1,2.054474768E-1,4.230460525E-3,8.407395925E-1
1.064462950E1,7.478387091E-1,1.253748651E-1,-3.232106924E-2,7.589639274E-1
1.065467750E1,6.586540523E-1,3.639917325E-2,-1.243211603E-1,6.712717865E-1
1.066472450E1,5.868432274E-1,-3.602798469E-2,-1.819314373E-1,6.154527091E-1
1.067477250E1,4.897101581E-1,-8.937301017E-2,-1.895667315E-1,5.326716808E-1
1.068482050E1,4.669747218E-1,-1.421322177E-1,-1.458892000E-1,5.094611043E-1
1.069486750E1,4.421529990E-1,-1.336373828E-1,2.911796451E-2,4.628240276E-1
1.070491550E1,3.351346269E-1,-2.063673900E-1,1.994087648E-1,4.412103504E-1
1.071496350E1,1.626873735E-1,-3.607869467E-1,3.054638082E-1,4.999425372E-1
1.072501050E1,-1.764251143E-2,-4.871728320E-1,4.324881363E-1,6.516859784E-1
1.073505850E1,-9.626008004E-2,-5.506163643E-1,4.921034235E-1,7.447215339E-1
1.074510550E1,-1.076238513E-1,-5.761398992E-1,4.905205822E-1,7.642843178E-1
1.075515350E1,-4.766123950E-2,-6.053011331E-1,4.400906861E-1,7.498939041E-1
1.076520150E1,-1.978317708E-2,-6.661399502E-1,3.519608670E-1,7.536645535E-1
1.077524850E1,-4.278524637E-2,-7.219396368E-1,2.649776870E-1,7.702211313E-1
1.078529650E1,-5.963604480E-2,-7.778568524E-1,1.782833594E-1,8.002516460E-1
1.079534350E1,-7.803372413E-2,-8.205188687E-1,1.417750990E-1,8.363256870E-1
1.080539150E1,-2.112262800E-1,-8.612540813E-1,1.460383040E-1,8.987226047E-1
1.081543950E1,-3.370013505E-1,-9.246075665E-1,6.007838666E-2,9.859404013E-1
1.082548650E1,-3.834630337E-1,-9.850584208E-1,-8.046061099E-2,1.060121644E0
1.083553450E1,-3.380655438E-1,-9.721357819E-1,-2.122989517E-1,1.050907767E0
1.084558150E1,-3.228630754E-1,-9.061411093E-1,-2.709740067E-1,9.993794013E-1
1.085562950E1,-3.184557366E-1,-9.093582474E-1,-3.540822369E-1,1.026508991E0
1.086567750E1,-2.787326771E-1,-8.882745764E-1,-4.705570185E-1,1.043143104E0
1.087572450E1,-2.294274929E-1,-8.751763017E-1,-5.742170423E-1,1.071585622E0
1.088577250E1,-1.748899278E-1,-8.880685352E-1,-6.562891459E-1,1.118019523E0
1.089581950E1,-7.255985320E-2,-8.637971815E-1,-7.495107204E-1,1.145939275E0
1.090586750E1,-2.598561108E-2,-8.247867514E-1,-8.043599421E-1,1.152364245E0
1.091591550E1,-2.011208296E-2,-7.863470095E-1,-7.901763511E-1,1.114955058E0
1.092596250E1,-3.014473557E-2,-7.520949704E-1,-7.407784885E-1,1.056081587E0
1.093601050E1,3.256899118E-2,-7.142607077E-1,-7.016009742E-1,1.001735007E0
1.094605750E1,1.814408559E-1,-6.649023139E-1,-6.628760344E-1,9.562533703E-1
1.095610550E1,3.576285732E-1,-6.294502068E-1,-6.220817649E-1,9.545111217E-1
1.096615350E1,5.297659242E-1,-5.799383967E-1,-5.907582307E-1,9.828406613E-1
1.097620050E1,6.680025807E-1,-4.957852690E-1,-4.783314764E-1,9.595996468E-1
1.098624850E1,7.965103474E-1,-3.983770151E-1,-2.870480025E-1,9.356973525E-1
1.099629550E1,9.004691640E-1,-3.488339954E-1,-1.675379312E-1,9.801014386E-1
1.100634350E1,9.487469923E-1,-3.128467219E-1,-4.357286632E-2,9.999462594E-1
1.101639150E1,9.654405007E-1,-2.602027776E-1,4.017563403E-2,1.000697221E0
1.102643850E1,9.811677566E-1,-1.918561357E-1,1.186271417E-1,1.006762803E0
1.103648638E1,9.732175899E-1,-1.419832599E-1,2.029001373E-1,1.004231143E0
1.104653338E1,9.190717882E-1,-9.643330380E-2,2.535954970E-1,9.582812792E-1
1.105658137E1,8.205517593E-1,7.452276349E-4,2.759570038E-1,8.657124309E-1
1.106662938E1,7.884540537E-1,6.233197667E-2,2.456929851E-1,8.281969047E-1
1.107667637E1,8.734573665E-1,1.266563190E-1,1.926242405E-1,9.033679717E-1
1.108672438E1,1.037695422E0,2.166113464E-1,1.322850680E-1,1.068284420E0
1.109677137E1,1.167962615E0,3.351860093E-1,1.047721642E-1,1.219616144E0
1.110681938E1,1.255956779E0,3.801379415E-1,8.568334401E-2,1.315018601E0
1.111686738E1,1.272967791E0,3.763806669E-1,1.185195529E-1,1.332725136E0
1.112691438E1,1.227718528E0,3.400951854E-1,2.724568605E-1,1.302762550E0
1.113696238E1,1.195874299E0,3.552170353E-1,4.557243866E-1,1.328148786E0
1.114700938E1,1.134749554E0,3.755010995E-1,6.639554304E-1,1.367294569E0
1.115705738E1,1.113078895E0,3.612020259E-1,7.842215466E-1,1.408692644E0
1.116710538E1,1.178867673E0,3.486850376E-1,8.044014573E-1,1.469139867E0
1.117715238E1,1.401790138E0,4.054527307E-1,7.897535974E-1,1.659252317E0
1.118720038E1,1.656218863E0,4.907601719E-1,6.978558326E-1,1.863037636E0
1.119724738E1,1.838996978E0,5.279907826E-1,6.021433443E-1,2.005806760E0
1.120729538E1,1.897588417E0,5.115144253E-1,6.037811494E-1,2.055976771E0
1.121734337E1,1.938804271E0,4.820678473E-1,6.651663888E-1,2.105658504E0
1.122739038E1,1.974641856E0,5.041264683E-1,8.186973149E-1,2.196273946E0
1.123743837E1,1.925225574E0,5.657569253E-1,1.077142493E0,2.277456994E0
1.124748538E1,1.756418505E0,5.871493292E-1,1.316506451E0,2.272210275E0
1.125753337E1,1.572554855E0,5.745742341E-1,1.508062406E0,2.253290159E0
1.126758138E1,1.409458177E0,5.972420985E-1,1.683823861E0,2.275639091E0
1.127762837E1,1.222007260E0,6.489462125E-1,1.848821762E0,2.309236852E0
1.128767638E1,1.075002119E0,6.700556843E-1,1.925959400E0,2.305194956E0
1.129772337E1,9.364710554E-1,6.491477222E-1,1.922673849E0,2.234959851E0
1.130777138E1,8.780752051E-1,6.235957552E-1,1.766482440E0,2.068900177E0
1.131781938E1,9.138478857E-1,6.252539525E-1,1.499096870E0,1.863693078E0
1.132786638E1,1.010085162E0,6.022355841E-1,1.169030902E0,1.658189670E0
1.133791438E1,1.112609364E0,6.463956571E-1,8.093686670E-1,1.520133080E0
1.134796138E1,1.212288603E0,6.986067612E-1,4.924115717E-1,1.483295055E0
1.135800938E1,1.274844163E0,7.446563619E-1,2.287003917E-1,1.494002880E0
1.136805738E1,1.247764830E0,8.013332771E-1,7.201372325E-2,1.484667663E0
1.137810438E1,1.144531068E0,7.924945528E-1,-1.004668593E-2,1.392156571E0
1.138815238E1,1.000756806E0,7.528438526E-1,7.299079299E-3,1.252334351E0
1.139820037E1,8.050002122E-1,6.917973863E-1,1.631314695E-1,1.073881205E0
1.140824738E1,6.509225714E-1,6.299135256E-1,3.921090192E-1,9.870363350E-1
1.141829537E1,5.788053524E-1,5.381158943E-1,7.086568093E-1,1.061498387E0
1.142834238E1,5.424318704E-1,3.657379304E-1,1.043457853E0,1.231584694E0
1.143839037E1,4.391443142E-1,1.467225013E-1,1.411076978E0,1.485097121E0
1.144843838E1,3.443811214E-1,-1.029453479E-1,1.804856547E0,1.840299774E0
1.145848537E1,2.522506374E-1,-3.409800153E-1,2.083615537E0,2.126346975E0
1.146853338E1,1.877552640E-1,-5.709614588E-1,2.279856865E0,2.357752394E0
1.147858037E1,2.059439054E-1,-7.587659857E-1,2.347334318E0,2.475503406E0
1.148862838E1,2.951890808E-1,-9.041950098E-1,2.243364392E0,2.436675810E0
1.149867638E1,3.909167719E-1,-1.023015548E0,1.982683239E0,2.265040741E0
1.150872338E1,5.114123914E-1,-1.121185548E0,1.632546118E0,2.045435527E0
1.151877138E1,5.993241093E-1,-1.180209901E0,1.254810140E0,1.823906052E0
1.152881838E1,6.480518809E-1,-1.213937591E0,8.510622382E-1,1.617999582E0
1.153886638E1,5.893610385E-1,-1.190266089E0,5.198467076E-1,1.426296040E0
1.154891438E1,4.858305305E-1,-1.118836795E0,2.312421763E-1,1.241491048E0
1.155896138E1,2.953472480E-1,-1.031414489E0,-7.034200430E-4,1.072868277E0
1.156900938E1,1.420785695E-2,-9.592591166E-1,-1.361097318E-1,9.689715038E-1
1.157905638E1,-3.259775949E-1,-8.660104989E-1,-2.245243102E-1,9.521799947E-1
1.158910438E1,-6.589683402E-1,-7.950013272E-1,-2.380009729E-1,1.059674878E0
1.159915237E1,-1.021860285E0,-6.701107943E-1,-2.474459803E-1,1.246786442E0
1.160919938E1,-1.389418599E0,-5.942168587E-1,-2.364660788E-1,1.529540430E0
1.161924737E1,-1.723627612E0,-5.350870366E-1,-2.582294154E-1,1.823154605E0
1.162929438E1,-1.813441721E0,-4.400519483E-1,-3.501914996E-1,1.898644432E0
1.163934237E1,-1.619983668E0,-3.193344270E-1,-4.944715458E-1,1.723607748E0
1.164939038E1,-1.335231282E0,-1.294282646E-1,-6.267858499E-1,1.480694011E0
1.165943737E1,-1.119909613E0,6.023860037E-2,-6.905883282E-1,1.317094707E0
1.166948538E1,-1.062391429E0,1.520239525E-1,-6.775654095E-1,1.269205151E0
1.167953238E1,-1.194216029E0,1.511246507E-1,-5.623840320E-1,1.328633277E0
1.168958038E1,-1.402000053E0,6.595118389E-2,-4.090694529E-1,1.461947853E0
1.169962838E1,-1.565205490E0,-3.725743487E-2,-2.465741605E-1,1.584946421E0
1.170967538E1,-1.704582938E0,-1.263802573E-1,-1.237773693E-1,1.713737378E0
1.171972338E1,-1.733518762E0,-2.430636384E-1,-1.239375830E-1,1.754858329E0
1.172977038E1,-1.647461489E0,-3.011722443E-1,-1.641792905E-1,1.682792000E0
1.173981838E1,-1.553963633E0,-2.663207924E-1,-2.546959430E-1,1.597059724E0
1.174986638E1,-1.540260683E0,-2.042216080E-1,-3.427731371E-1,1.591101147E0
1.175991338E1,-1.623205484E0,-2.074251513E-1,-4.175718892E-1,1.688842065E0
1.176996138E1,-1.730676723E0,-2.975715289E-1,-4.654418743E-1,1.816707701E0
1.178000838E1,-1.778241483E0,-4.399804661E-1,-4.887564772E-1,1.895945273E0
1.179005638E1,-1.769704841E0,-5.366448811E-1,-5.238432795E-1,1.922044415E0
1.180010438E1,-1.724952883E0,-6.373976693E-1,-6.401022989E-1,1.947169533E0
1.181015138E1,-1.674746351E0,-7.307003738E-1,-8.502576613E-1,2.015350210E0
1.182019938E1,-1.608845015E0,-7.448832339E-1,-1.106464525E0,2.089855750E0
1.183024638E1,-1.509890830E0,-6.906539632E-1,-1.406464110E0,2.175985870E0
1.184029438E1,-1.389404274E0,-5.481992716E-1,-1.612919939E0,2.198289655E0
1.185034238E1,-1.366417407E0,-4.100982705E-1,-1.630676179E0,2.166652238E0
1.186038938E1,-1.428524193E0,-3.228412946E-1,-1.476339507E0,2.079539903E0
1.187043738E1,-1.510221198E0,-3.520069139E-1,-1.222198464E0,1.974448282E0
1.188048538E1,-1.657947008E0,-5.024269751E-1,-9.496117955E-1,1.975597051E0
1.189053238E1,-1.837802684E0,-7.727196349E-1,-7.244513083E-1,2.121189298E0
1.190058038E1,-1.885352534E0,-9.915572356E-1,-5.983555180E-1,2.212638528E0
1.191062738E1,-1.743452889E0,-1.056007585E0,-5.277310932E-1,2.105535586E0
1.192067538E1,-1.463268641E0,-9.188000388E-1,-5.917505032E-1,1.826339860E0
1.193072238E1,-1.134060167E0,-7.223223370E-1,-7.637410891E-1,1.546331941E0
1.194077038E1,-8.675481704E-1,-5.265844542E-1,-9.958036298E-1,1.421814293E0
1.195081838E1,-7.045973799E-1,-4.011045219E-1,-1.256622192E0,1.495473717E0
1.196086538E1,-6.223437202E-1,-3.875283104E-1,-1.478997651E0,1.650734366E0
1.197091338E1,-6.261309618E-1,-3.604576023E-1,-1.552553869E0,1.712423190E0
1.198096138E1,-6.237891519E-1,-2.890069659E-1,-1.535214536E0,1.682118190E0
1.199100838E1,-5.473654586E-1,-2.601202588E-1,-1.470056673E0,1.590074878E0
1.200105638E1,-4.433005151E-1,-2.329995570E-1,-1.378833092E0,1.466964498E0
1.201110337E1,-3.594070038E-1,-2.091014019E-1,-1.292186712E0,1.357439976E0
1.202115138E1,-3.151602459E-1,-1.770762017E-1,-1.304465865E0,1.353629622E0
1.203119938E1,-3.181984591E-1,-1.377909525E-1,-1.415549514E0,1.457400779E0
1.204124642E1,-3.660514873E-1,-7.947710931E-2,-1.579703661E0,1.623506686E0
1.205129442E1,-3.683161139E-1,8.289451450E-3,-1.743956042E0,1.782444431E0
1.206134142E1,-4.066124529E-1,1.281828077E-1,-1.913334092E0,1.960258112E0
1.207138942E1,-4.720454273E-1,2.245656793E-1,-2.006201910E0,2.073186613E0
1.208143742E1,-5.028777954E-1,2.788471363E-1,-1.989177741E0,2.070620653E0
1.209148442E1,-4.402891991E-1,2.964440395E-1,-1.876041135E0,1.949683048E0
1.210153242E1,-3.137545753E-1,3.342879501E-1,-1.720013448E0,1.780066467E0
1.211157942E1,-2.039429882E-1,3.615807062E-1,-1.524162714E0,1.579685199E0
1.212162742E1,-1.494884536E-1,3.441431397E-1,-1.304316761E0,1.357211668E0
1.213167542E1,-2.017530598E-1,2.716620778E-1,-1.120946909E0,1.170908431E0
1.214172242E1,-2.590510954E-1,1.776039129E-1,-1.024159702E0,1.071239336E0
1.215177042E1,-1.938762756E-1,1.144740106E-1,-9.772802353E-1,1.002880336E0
1.216181742E1,-3.127222493E-2,2.050839262E-1,-8.783330673E-1,9.025000531E-1
1.217186542E1,1.166731484E-1,3.532621649E-1,-7.081697363E-1,7.999444706E-1
1.218191342E1,1.582630777E-1,4.657568930E-1,-4.647682750E-1,6.767468025E-1
1.219196042E1,1.171686999E-1,4.999857625E-1,-2.443820393E-1,5.687150852E-1
1.220200842E1,6.976795390E-2,4.964797720E-1,-8.040096939E-2,5.077637712E-1
1.221205542E1,1.039313346E-1,5.623106495E-1,1.117402911E-2,5.719439201E-1
1.222210342E1,1.788826990E-1,6.146489306E-1,-1.083079755E-2,6.402418559E-1
1.223215142E1,1.662721552E-1,5.943735641E-1,-9.216673672E-2,6.240361133E-1
1.224219842E1,6.184643850E-2,5.362564798E-1,-1.122326267E-1,5.513548372E-1
1.225224642E1,-7.240899503E-2,4.730419390E-1,-1.497343290E-1,5.014300628E-1
1.226229342E1,-2.222111517E-1,4.823664938E-1,-1.081717354E-1,5.419929470E-1
1.227234142E1,-3.753225401E-1,5.110815851E-1,-1.033091909E-1,6.424516983E-1
1.228238942E1,-5.077827322E-1,4.765565541E-1,-1.114678109E-1,7.052478467E-1
1.229243642E1,-6.429376137E-1,4.329908507E-1,-2.575055301E-1,8.167979860E-1
1.230248442E1,-8.828870250E-1,4.684469046E-1,-4.382055438E-1,1.091309351E0
1.231253142E1,-1.119355004E0,5.136732173E-1,-5.939560729E-1,1.367333030E0
1.232257942E1,-1.237851022E0,5.498644124E-1,-7.016436589E-1,1.525427759E0
1.233262742E1,-1.306367818E0,5.891278808E-1,-6.730811799E-1,1.583258289E0
1.234267442E1,-1.431663271E0,6.008304982E-1,-6.006587362E-1,1.664766628E0
1.235272242E1,-1.615988850E0,5.362294364E-1,-5.886503094E-1,1.801519126E0
1.236277042E1,-1.878550760E0,4.208723500E-1,-6.305128652E-1,2.025742572E0
1.237281742E1,-2.120718313E0,2.999092457E-1,-6.657546186E-1,2.242904574E0
1.238286542E1,-2.241276936E0,2.459315515E-1,-6.940422785E-1,2.359131051E0
1.239291242E1,-2.266298487E0,2.329001543E-1,-6.429773748E-1,2.367228595E0
1.240296042E1,-2.142813917E0,2.482787700E-1,-6.042957044E-1,2.240193548E0
1.241300842E1,-1.923976317E0,2.991385826E-1,-6.221098316E-1,2.044061986E0
1.242305542E1,-1.677824618E0,3.931176639E-1,-6.611458433E-1,1.845738544E0
1.243310342E1,-1.458759122E0,4.588935775E-1,-7.295822400E-1,1.694358798E0
1.244315042E1,-1.278746010E0,5.198101625E-1,-8.174933732E-1,1.604272227E0
1.245319842E1,-1.135391139E0,5.520946866E-1,-8.968968076E-1,1.548659248E0
1.246324642E1,-1.024969688E0,6.348653863E-1,-1.007379947E0,1.571124208E0
1.247329342E1,-9.128415799E-1,7.420939659E-1,-1.108442053E0,1.616362270E0
1.248334142E1,-7.938029404E-1,8.424495819E-1,-1.107885983E0,1.602265820E0
1.249338842E1,-6.856325206E-1,9.406848514E-1,-1.053308072E0,1.569852808E0
1.250343642E1,-5.362759218E-1,9.218766975E-1,-9.381875056E-1,1.420438068E0
1.251348442E1,-3.874875261E-1,9.347285852E-1,-7.135649621E-1,1.238159548E0
1.252353142E1,-3.006000942E-1,9.834920248E-1,-3.913354325E-1,1.100345582E0
1.253357942E1,-1.758373229E-1,9.757440256E-1,1.885317743E-2,9.916403632E-1
1.254362642E1,-1.131209649E-1,9.002671427E-1,3.581688559E-1,9.754805022E-1
1.255367442E1,-1.119573690E-1,7.565474059E-1,6.424867934E-1,9.988431856E-1
1.256372242E1,-1.172207402E-1,6.319999583E-1,9.560548425E-1,1.152044058E0
1.257376942E1,-1.612331709E-1,5.196214436E-1,1.234578774E0,1.349143183E0
1.258381742E1,-1.975242072E-1,4.196609531E-1,1.417877875E0,1.491813928E0
1.259386542E1,-2.151566322E-1,3.889930379E-1,1.477603090E0,1.543022635E0
1.260391242E1,-2.743275310E-1,3.532396531E-1,1.388154724E0,1.458426338E0
1.261396042E1,-3.266647889E-1,3.351644477E-1,1.281797964E0,1.364569937E0
1.262400742E1,-3.425597137E-1,3.487019214E-1,1.219191826E0,1.313532982E0
1.263405542E1,-3.213642879E-1,3.697975060E-1,1.188817880E0,1.285812254E0
1.264410342E1,-2.638197921E-1,3.279472294E-1,1.212869816E0,1.283823765E0
1.265415042E1,-2.019385627E-1,1.859680626E-1,1.362352715E0,1.389736746E0
1.266419842E1,-1.226251754E-1,4.712855816E-2,1.612253357E0,1.617596649E0
1.267424542E1,-1.310843423E-2,-1.414035085E-1,1.790923802E0,1.796545253E0
1.268429342E1,1.558554867E-1,-3.769594681E-1,1.851620239E0,1.896018693E0
1.269434142E1,3.891665541E-1,-5.348532942E-1,1.730880498E0,1.852961401E0
1.270438842E1,6.139987202E-1,-5.735720944E-1,1.464221737E0,1.688171991E0
1.271443642E1,7.501894359E-1,-5.935029137E-1,1.149151538E0,1.495185325E0
1.272448342E1,8.971007292E-1,-6.621884018E-1,8.183499902E-1,1.383105168E0
1.273453142E1,1.115932483E0,-6.237885672E-1,6.243779665E-1,1.422766786E0
1.274457942E1,1.221031360E0,-4.711054873E-1,6.371903855E-1,1.455633728E0
1.275462642E1,1.264332769E0,-3.773503545E-1,7.782088548E-1,1.531841919E0
1.276467442E1,1.191360103E0,-3.904908022E-1,8.768975759E-1,1.529957947E0
1.277472142E1,1.126227529E0,-5.282982731E-1,1.021095761E0,1.609386239E0
1.278476942E1,1.146064208E0,-6.948220047E-1,1.204612963E0,1.802035843E0
1.279481742E1,1.246649181E0,-8.531979337E-1,1.351472801E0,2.026958220E0
1.280486442E1,1.419286469E0,-9.820305133E-1,1.393807812E0,2.218435987E0
1.281491242E1,1.616621811E0,-1.032267744E0,1.281657046E0,2.306878315E0
1.282495942E1,1.825972305E0,-1.075266121E0,1.056707059E0,2.367910872E0
1.283500742E1,2.032806449E0,-1.037587248E0,7.787216556E-1,2.411492644E0
1.284505542E1,2.195404360E0,-9.448065537E-1,5.622390211E-1,2.455315141E0
1.285510242E1,2.116887948E0,-9.636114916E-1,3.689938062E-1,2.354977308E0
1.286515042E1,1.810324571E0,-1.132947149E0,2.760774565E-1,2.153384094E0
1.287519842E1,1.581794041E0,-1.340590548E0,2.624493510E-1,2.090008389E0
1.288524542E1,1.565928644E0,-1.397041907E0,1.020111090E-1,2.101015201E0
1.289529342E1,1.729170919E0,-1.284929733E0,-2.194354784E-1,2.165462633E0
1.290534042E1,1.944357518E0,-1.130079675E0,-6.614639318E-1,2.344171658E0
1.291538842E1,2.018029365E0,-1.011267761E0,-1.051424684E0,2.490100173E0
1.292543642E1,2.039856144E0,-9.260767525E-1,-1.290030844E0,2.585113309E0
1.293548342E1,2.076293946E0,-8.002747849E-1,-1.403827016E0,2.631001059E0
1.294553142E1,2.069602831E0,-6.765593961E-1,-1.544172471E0,2.669355186E0
1.295557842E1,1.995614503E0,-6.083875859E-1,-1.677026473E0,2.676757458E0
1.296562642E1,1.792848997E0,-5.959499735E-1,-1.684094587E0,2.530936285E0
1.297567442E1,1.495748169E0,-6.115091220E-1,-1.565358102E0,2.249789319E0
1.298572142E1,1.156535840E0,-6.339200377E-1,-1.396718556E0,1.921002990E0
1.299576942E1,8.460368487E-1,-6.694380721E-1,-1.222480885E0,1.630455518E0
1.300581642E1,6.595020448E-1,-7.276222533E-1,-1.122602255E0,1.491513632E0
1.301586442E1,5.985774198E-1,-7.501223391E-1,-1.155190542E0,1.501813451E0
1.302591242E1,5.947827230E-1,-7.233303970E-1,-1.168730940E0,1.497633253E0
1.303595950E1,6.445109533E-1,-7.006110406E-1,-1.172410008E0,1.510230256E0
1.304600750E1,7.101373243E-1,-6.576916006E-1,-1.142394496E0,1.497303725E0
1.305605450E1,7.642419031E-1,-6.033630735E-1,-1.000333468E0,1.395987010E0
1.306610250E1,7.550646982E-1,-6.188277894E-1,-7.856073368E-1,1.253095934E0
1.307615050E1,6.828979240E-1,-6.565046158E-1,-6.185582328E-1,1.131354132E0
1.308619750E1,6.158791848E-1,-6.980721796E-1,-4.249972683E-1,1.023344818E0
1.309624550E1,5.309936933E-1,-6.744219464E-1,-2.295283574E-1,8.885282950E-1
1.310629250E1,3.703402738E-1,-6.146794823E-1,2.517577171E-2,7.180644845E-1
1.311634050E1,2.294862574E-1,-5.410416949E-1,2.175246084E-1,6.266633970E-1
1.312638850E1,9.849824801E-2,-5.105946583E-1,3.829645586E-1,6.458100828E-1
1.313643550E1,8.846574157E-2,-4.827575263E-1,5.867318380E-1,7.649413483E-1
1.314648350E1,1.126840317E-1,-3.826920784E-1,8.391631544E-1,9.291639885E-1
1.315653150E1,1.501088431E-1,-3.412858978E-1,1.001184238E0,1.068353222E0
1.316657850E1,1.558402839E-1,-3.704868928E-1,1.204263300E0,1.269565606E0
1.317662650E1,1.758899479E-1,-4.876835132E-1,1.247288282E0,1.350740738E0
1.318667350E1,2.770235360E-1,-5.837953663E-1,1.160790421E0,1.328530568E0
1.319672150E1,3.904865630E-1,-5.283304328E-1,1.048021020E0,1.236915866E0
1.320676950E1,5.354273446E-1,-3.596125335E-1,8.642997497E-1,1.078432971E0
1.321681650E1,6.488574810E-1,-2.152377623E-1,6.604242969E-1,9.505280516E-1
1.322686450E1,6.920757137E-1,-5.128680557E-2,4.562751943E-1,8.305336735E-1
1.323691150E1,6.833649704E-1,8.567486554E-2,2.805616862E-1,7.436684241E-1
1.324695950E1,6.784237808E-1,2.088157654E-1,1.455845600E-1,7.246086629E-1
1.325700750E1,6.870949093E-1,2.836873153E-1,5.502463818E-2,7.453895746E-1
1.326705450E1,6.543627807E-1,3.487212172E-1,1.278786063E-2,7.415933290E-1
1.327710250E1,6.590610185E-1,3.293751195E-1,2.546462417E-2,7.372230616E-1
1.328714950E1,6.634834139E-1,3.269979340E-1,8.798714697E-2,7.449024281E-1
1.329719750E1,6.054765496E-1,3.500479504E-1,1.581420404E-1,7.170385796E-1
1.330724550E1,5.089969066E-1,3.569643295E-1,3.209016269E-1,6.996279280E-1
1.331729250E1,4.500213048E-1,3.367797410E-1,6.210432994E-1,8.376362865E-1
1.332734050E1,2.844132471E-1,3.391616043E-1,1.044938368E0,1.134820550E0
1.333738850E1,3.885299385E-2,2.697200713E-1,1.475309227E0,1.500265239E0
1.334743550E1,-1.610583392E-1,1.406401545E-1,1.828124372E0,1.840586364E0
1.335748350E1,-2.894091082E-1,1.047221705E-2,2.043414175E0,2.063833518E0
1.336753050E1,-3.557820225E-1,-9.265585631E-2,2.077224530E0,2.109508877E0
1.337757850E1,-2.669862056E-1,-1.687145372E-1,1.942792364E0,1.968295811E0
1.338762650E1,2.865837336E-2,-2.081803192E-1,1.618613958E0,1.632198362E0
1.339767350E1,4.807493001E-1,-1.393040657E-1,1.146762950E0,1.251235700E0
1.340772150E1,9.300288856E-1,-7.496422827E-3,5.860330957E-1,1.099292824E0
1.341776850E1,1.270026057E0,8.033167988E-2,1.701890588E-2,1.272677888E0
1.342781650E1,1.554165362E0,5.744918615E-2,-5.233240467E-1,1.640913904E0
1.343786450E1,1.833091290E0,5.478285581E-2,-9.737643045E-1,2.076401155E0
1.344791150E1,2.049909262E0,1.331386153E-1,-1.336426746E0,2.450691804E0
1.345795950E1,2.244624175E0,2.000677460E-1,-1.621569141E0,2.776301725E0
1.346800650E1,2.413238871E0,2.579734536E-1,-1.846644843E0,3.049650689E0
1.347805450E1,2.599824107E0,2.609077325E-1,-2.031125666E0,3.309475745E0
1.348810250E1,2.820037557E0,3.084058347E-1,-2.158697294E0,3.564786107E0
1.349814950E1,2.995768315E0,3.646041553E-1,-2.193454313E0,3.730791579E0
1.350819750E1,3.060924131E0,4.189367755E-1,-2.115819662E0,3.744523654E0
1.351824450E1,3.057723950E0,3.436597212E-1,-1.878722084E0,3.605187155E0
1.352829250E1,3.057408200E0,1.617244832E-1,-1.409119331E0,3.370388256E0
1.353834050E1,3.032437958E0,1.217570101E-1,-7.867539757E-1,3.135201199E0
1.354838750E1,2.950724874E0,1.051497482E-1,-6.304350972E-2,2.953270769E0
1.355843550E1,2.685559199E0,-6.018546380E-2,6.554605955E-1,2.765045947E0
1.356848350E1,2.295754275E0,-3.619698384E-1,1.271049612E0,2.648976589E0
1.357853050E1,1.799092362E0,-6.813622259E-1,1.813741391E0,2.643982913E0
1.358857850E1,1.214967797E0,-8.971350816E-1,2.365268313E0,2.806330753E0
1.359862550E1,5.427856269E-1,-9.740959878E-1,2.836522320E0,3.047841548E0
1.360867350E1,-1.822749612E-1,-1.053166643E0,3.051859485E0,3.233609509E0
1.361872150E1,-8.212917244E-1,-1.109406625E0,2.950474028E0,3.257391617E0
1.362876850E1,-1.228773658E0,-1.111373847E0,2.552460490E0,3.043039777E0
1.363881650E1,-1.429507402E0,-9.440028539E-1,1.898649979E0,2.557245500E0
1.364886350E1,-1.401340195E0,-6.561557563E-1,1.050231852E0,1.870102046E0
1.365891150E1,-1.242768092E0,-3.592962356E-1,1.915758348E-1,1.307772004E0
1.366895950E1,-1.071014611E0,-1.264656632E-1,-5.800601649E-1,1.224555289E0
1.367900650E1,-9.047499105E-1,6.608925126E-2,-1.240494987E0,1.536804477E0
1.368905450E1,-7.936855575E-1,2.132867657E-1,-1.772650083E0,1.953897727E0
1.369910150E1,-6.579310441E-1,2.999081859E-1,-2.207201117E0,2.322618124E0
1.370914950E1,-5.407414404E-1,3.793384444E-1,-2.531968923E0,2.616708923E0
1.371919750E1,-4.825844488E-1,4.657110655E-1,-2.717615097E0,2.799143862E0
1.372924450E1,-4.817225692E-1,5.709238905E-1,-2.824798653E0,2.921899750E0
1.373929250E1,-5.349658531E-1,7.142695516E-1,-2.766265685E0,2.906646744E0
1.374934050E1,-7.115090811E-1,9.043035487E-1,-2.681012696E0,2.917505640E0
1.375938750E1,-9.383874804E-1,1.024641366E0,-2.670904030E0,3.010679214E0
1.376943550E1,-1.172402114E0,1.107494950E0,-2.771120043E0,3.206271679E0
1.377948250E1,-1.362413234E0,1.147938241E0,-2.869330462E0,3.377423474E0
1.378953050E1,-1.356142680E0,1.210184336E0,-2.934515222E0,3.451818171E0
1.379957850E1,-1.228267874E0,1.354668889E0,-2.866730790E0,3.400281634E0
1.380962550E1,-1.069815931E0,1.486837744E0,-2.666790513E0,3.235268806E0
1.381967350E1,-1.000931053E0,1.497523969E0,-2.325552855E0,2.941536519E0
1.382972050E1,-1.092913603E0,1.415740571E0,-1.817197096E0,2.549703276E0
1.383976850E1,-1.248129404E0,1.285657565E0,-1.136843149E0,2.122063790E0
1.384981650E1,-1.328882376E0,1.111654660E0,-5.498914558E-1,1.817714242E0
1.385986350E1,-1.311715535E0,9.825373938E-1,-1.213876122E-1,1.643384413E0
1.386991150E1,-1.237428707E0,9.899018888E-1,1.777079934E-1,1.594589504E0
1.387995850E1,-1.144725488E0,1.069129907E0,3.880387723E-1,1.613694299E0
1.389000650E1,-1.003538034E0,1.143264488E0,4.355269343E-1,1.582348251E0
1.390005450E1,-8.156348357E-1,1.186404661E0,2.747179788E-1,1.465703303E0
1.391010150E1,-6.172002169E-1,1.218514061E0,-1.245047629E-2,1.365967656E0
1.392014950E1,-4.270204049E-1,1.215646148E0,-2.877122462E-1,1.320197076E0
1.393019750E1,-2.544760877E-1,1.228102690E0,-5.287526017E-1,1.361092800E0
1.394024450E1,-6.863637149E-2,1.207361520E0,-8.263501507E-1,1.464679952E0
1.395029250E1,1.568828425E-1,1.220425004E0,-1.126861367E0,1.668492121E0
1.396033950E1,2.761683807E-1,1.309975842E0,-1.402114951E0,1.938616006E0
1.397038750E1,2.867027244E-1,1.373285839E0,-1.630342303E0,2.150843665E0
1.398043550E1,2.546012181E-1,1.409569566E0,-1.864667131E0,2.351317004E0
1.399048250E1,2.130701995E-1,1.527151226E0,-2.056872126E0,2.570663868E0
1.400053050E1,1.820399031E-1,1.615574429E0,-2.193066643E0,2.729974462E0
1.401057750E1,1.875792629E-1,1.680846020E0,-2.317706476E0,2.869179784E0
1.402062550E1,2.128491747E-1,1.706138005E0,-2.424120539E0,2.971964342E0
1.403067350E1,2.332416317E-1,1.727161669E0,-2.575826549E0,3.110043649E0
1.404072038E1,1.515396568E-1,1.825050783E0,-2.691021375E0,3.255053098E0
1.405076838E1,9.758213550E-2,1.919711358E0,-2.775631170E0,3.376231977E0
1.406081638E1,1.359278834E-1,2.015054448E0,-2.734226452E0,3.399252139E0
1.407086338E1,2.723676905E-1,2.214044260E0,-2.515402007E0,3.362056424E0
1.408091138E1,4.745594376E-1,2.435855024E0,-2.102121390E0,3.252308517E0
1.409095838E1,6.676479471E-1,2.570402087E0,-1.550471091E0,3.075171747E0
1.410100637E1,7.189198422E-1,2.526927454E0,-8.721630853E-1,2.768190121E0
1.411105438E1,4.693840671E-1,2.258436029E0,-2.518869406E-1,2.320409819E0
1.412110137E1,-9.062891901E-3,1.822603578E0,2.336792958E-1,1.837545088E0
1.413114938E1,-6.586023045E-1,1.299212580E0,8.286504453E-1,1.675819765E0
1.414119637E1,-1.278076504E0,8.242719041E-1,1.483114675E0,2.124272313E0
1.415124438E1,-1.681409546E0,3.961570466E-1,2.042046511E0,2.674702305E0
1.416129238E1,-1.859820667E0,-2.719525382E-2,2.277040846E0,2.940167939E0
1.417133938E1,-1.887201716E0,-4.255283417E-1,2.191993679E0,2.923600686E0
1.418138738E1,-1.701426027E0,-7.587308293E-1,1.863594752E0,2.635053775E0
1.419143438E1,-1.405319225E0,-1.066598282E0,1.430140071E0,2.271091069E0
1.420148238E1,-1.040219957E0,-1.423935444E0,8.939141428E-1,1.977051391E0
1.421153038E1,-6.061045405E-1,-1.676215025E0,4.385809350E-1,1.835596024E0
1.422157738E1,-2.289936295E-1,-1.861668679E0,1.953086972E-1,1.885840354E0
1.423162538E1,1.463254023E-1,-2.083046018E0,1.837493366E-1,2.096247995E0
1.424167337E1,4.571750808E-1,-2.337703662E0,2.361760569E-1,2.393668021E0
1.425172038E1,6.954078957E-1,-2.607036062E0,9.897815824E-2,2.700004787E0
1.426176837E1,8.978458107E-1,-2.880124130E0,-1.607417125E-1,3.021105758E0
1.427181538E1,1.094069012E0,-2.998615324E0,-5.269271010E-1,3.235171253E0
1.428186337E1,1.351318727E0,-2.937589396E0,-9.916304719E-1,3.382133166E0
1.429191138E1,1.725149642E0,-2.557010794E0,-1.558391145E0,3.455868697E0
1.430195837E1,2.083828083E0,-1.928007095E0,-2.097437770E0,3.529701975E0
1.431200638E1,2.468516985E0,-1.210739018E0,-2.542755867E0,3.745006338E0
1.432205337E1,2.838769697E0,-5.879460123E-1,-2.813715840E0,4.039961725E0
1.433210138E1,3.051804521E0,-1.667262646E-1,-2.993631742E0,4.278216859E0
1.434214938E1,3.024585440E0,1.244438239E-2,-2.996186391E0,4.257394136E0
1.435219638E1,2.758421645E0,7.046816255E-2,-2.837201182E0,3.957722360E0
1.436224438E1,2.329730106E0,3.377276158E-2,-2.558640413E0,3.460552518E0
1.437229238E1,1.834259563E0,-7.760755347E-2,-2.220209418E0,2.880947923E0
1.438233938E1,1.269112430E0,-1.884942790E-1,-1.962342530E0,2.344560653E0
1.439238738E1,7.611399552E-1,-1.490507529E-1,-1.844997683E0,2.001391168E0
1.440243438E1,4.527265191E-1,-7.811068811E-2,-1.802355693E0,1.859986189E0
1.441248238E1,4.022685564E-1,-1.688926214E-2,-1.646551369E0,1.695062433E0
1.442253037E1,5.514760512E-1,7.245807510E-2,-1.146965264E0,1.274717743E0
1.443257738E1,7.969404101E-1,1.589616556E-1,-3.686382955E-1,8.923435539E-1
1.444262537E1,9.465390837E-1,5.511827585E-2,5.772154945E-1,1.110023418E0
1.445267238E1,7.707402062E-1,-3.443455996E-1,1.397462906E0,1.632641091E0
1.446272037E1,3.536518818E-1,-9.271954711E-1,1.880213708E0,2.126020857E0
1.447276838E1,-2.427062273E-2,-1.400945069E0,1.967106256E0,2.415107280E0
1.448281537E1,-8.841340899E-2,-1.626414874E0,1.787987915E0,2.418665553E0
1.449286338E1,1.833148885E-1,-1.563797919E0,1.542209560E0,2.203968831E0
1.450291138E1,5.344267398E-1,-1.382931114E0,1.266679403E0,1.950022337E0
1.451295838E1,7.826503998E-1,-1.288382660E0,1.161437708E0,1.903000020E0
1.452300638E1,9.003852564E-1,-1.283587504E0,1.257755967E0,2.010034966E0
1.453305338E1,7.490710098E-1,-1.323189526E0,1.556320646E0,2.175792236E0
1.454310138E1,4.070094788E-1,-1.439604667E0,1.945299650E0,2.454039332E0
1.455314938E1,2.142419815E-3,-1.658465948E0,2.241490359E0,2.788331566E0
1.456319638E1,-3.822862816E-1,-1.932223376E0,2.483243490E0,3.169562779E0
1.457324438E1,-6.516131276E-1,-2.100749194E0,2.646869634E0,3.441462728E0
1.458329138E1,-8.549459589E-1,-2.134653397E0,2.782082403E0,3.609385019E0
1.459333938E1,-1.016650123E0,-2.079027519E0,2.927600305E0,3.731859649E0
1.460338737E1,-1.174805612E0,-2.092005999E0,3.041518684E0,3.873950597E0
1.461343438E1,-1.315045232E0,-2.039945899E0,3.198270257E0,4.014929124E0
1.462348237E1,-1.329775538E0,-1.806348318E0,3.355050480E0,4.035785048E0
1.463353038E1,-1.219022841E0,-1.570973622E0,3.373365714E0,3.915810395E0
1.464357737E1,-1.057315754E0,-1.509127037E0,3.313870295E0,3.791716939E0
1.465362538E1,-9.368677890E-1,-1.679263033E0,3.079350754E0,3.630433397E0
1.466367237E1,-8.598915339E-1,-1.877708176E0,2.809884744E0,3.487212887E0
1.467372038E1,-8.192264879E-1,-1.936215270E0,2.575252937E0,3.324453233E0
1.468376838E1,-7.297366065E-1,-1.857115891E0,2.307556295E0,3.050608300E0
1.469381538E1,-5.864032245E-1,-1.652289242E0,1.995736563E0,2.656481303E0
1.470386338E1,-6.947550541E-1,-1.277447051E0,2.189872894E0,2.628706686E0
1.471391038E1,-6.971535820E-1,-9.983117929E-1,2.379215092E0,2.672697889E0
1.472395838E1,-8.013492107E-1,-6.788855647E-1,2.428812929E0,2.646162960E0
1.473400638E1,-1.556415955E0,-1.867718720E-1,3.154968701E0,3.522945055E0
1.474405338E1,-2.781179593E0,3.723084466E-1,4.652502025E0,5.433171137E0
1.475410138E1,-3.676772472E0,9.032588705E-1,5.803405974E0,6.929217365E0
1.476414937E1,-3.578870493E0,1.515571692E0,5.931086944E0,7.091055204E0
1.477419638E1,-2.231807370E0,2.272254315E0,4.775583576E0,5.740235387E0
1.478424437E1,-3.402667281E-1,2.565745072E0,2.827900016E0,3.833516365E0
1.479429138E1,9.958591783E-1,2.178767423E0,1.292873175E0,2.722183689E0
1.480433937E1,1.362612916E0,1.270884867E0,5.062957853E-1,1.930854144E0
1.481438738E1,1.159260204E0,2.002673188E-1,7.640849054E-2,1.178910293E0
1.482443438E1,7.982390767E-1,-5.664399166E-1,-2.447217625E-1,1.008924449E0
1.483448238E1,5.309265965E-1,-1.002760574E0,-4.740162313E-1,1.229676058E0
1.484452938E1,4.273656830E-1,-1.147849436E0,-3.331585604E-1,1.269328319E0
1.485457738E1,4.294794515E-1,-1.025163815E0,1.129915953E-2,1.111548972E0
1.486462538E1,4.629512528E-1,-8.600337674E-1,2.803026545E-1,1.016145423E0
1.487467238E1,4.916795003E-1,-8.173093320E-1,4.919572431E-1,1.073203245E0
1.488472038E1,3.878472760E-1,-9.017204681E-1,6.366682291E-1,1.169987926E0
1.489476838E1,2.879780021E-1,-1.012231017E0,6.759550864E-1,1.250783051E0
1.490481538E1,3.353419107E-1,-1.057584726E0,5.706800616E-1,1.247643932E0
1.491486338E1,4.395275992E-1,-9.220793767E-1,4.017580944E-1,1.097644958E0
1.492491038E1,3.585708520E-1,-6.851683979E-1,3.657772529E-1,8.554658310E-1
1.493495838E1,2.222035503E-1,-4.898923720E-1,6.618989646E-1,8.529239083E-1
1.494500638E1,1.201205206E-1,-3.767587624E-1,9.787455475E-1,1.055613069E0
1.495505338E1,6.921670765E-2,-3.056468991E-1,1.255657402E0,1.294174057E0
1.496510138E1,-5.754683465E-2,-2.182152376E-1,1.573688630E0,1.589787858E0
1.497514838E1,-2.712248522E-1,-2.178331221E-1,1.797820593E0,1.831167134E0
1.498519638E1,-4.410183468E-1,-3.204335573E-1,1.879582209E0,1.957039634E0
1.499524438E1,-6.102899775E-1,-4.724212570E-1,1.839919960E0,1.995229601E0
1.500529138E1,-8.346511504E-1,-6.459425709E-1,1.642625549E0,1.952460766E0
1.501533938E1,-1.124671585E0,-7.829657109E-1,1.507019847E0,2.036916861E0
1.502538738E1,-1.305663375E0,-7.118029768E-1,1.560901355E0,2.155883430E0
1.503543438E1,-1.389516248E0,-5.667772644E-1,1.714125302E0,2.278204868E0
1.504548175E1,-1.436478745E0,-5.952148323E-1,1.931222479E0,2.479389470E0
1.505552875E1,-1.432560233E0,-8.311742498E-1,2.140336452E0,2.706311066E0
1.506557675E1,-1.422790998E0,-1.107617669E0,2.205671486E0,2.848883611E0
1.507562475E1,-1.362932467E0,-1.346771347E0,2.104295969E0,2.845951422E0
1.508567175E1,-1.240307876E0,-1.541275906E0,1.927400154E0,2.762022158E0
1.509571975E1,-1.148955656E0,-1.626572018E0,1.719866098E0,2.631306715E0
1.510576675E1,-1.054805252E0,-1.658797486E0,1.452768795E0,2.444332299E0
1.511581475E1,-9.737651816E-1,-1.626474370E0,1.127563618E0,2.205682937E0
1.512586275E1,-9.508028734E-1,-1.542207075E0,8.211625010E-1,1.989154750E0
1.513590975E1,-1.031370781E0,-1.515965502E0,5.273779213E-1,1.907879599E0
1.514595775E1,-1.085817422E0,-1.560568063E0,2.034842741E-1,1.912008892E0
1.515600575E1,-1.036547028E0,-1.529109751E0,-1.165262371E-1,1.850995607E0
1.516605275E1,-9.564235094E-1,-1.503590894E0,-3.843328071E-1,1.822976470E0
1.517610075E1,-8.924891764E-1,-1.473118568E0,-6.020351708E-1,1.824571619E0
1.518614775E1,-8.508458912E-1,-1.470424902E0,-7.310709411E-1,1.849473666E0
1.519619575E1,-8.473454556E-1,-1.419313659E0,-7.801366818E-1,1.827856347E0
1.520624375E1,-9.305802780E-1,-1.288136346E0,-6.969150156E-1,1.735213370E0
1.521629075E1,-1.020149974E0,-1.174845592E0,-6.164725310E-1,1.673620780E0
1.522633875E1,-1.121325808E0,-1.133514183E0,-5.429473025E-1,1.684344901E0
1.523638575E1,-1.271274730E0,-1.133728849E0,-3.866178989E-1,1.746698011E0
1.524643375E1,-1.436837472E0,-1.159962747E0,-2.306662256E-1,1.860973510E0
1.525648175E1,-1.530961272E0,-1.179241310E0,-8.021561265E-2,1.934137282E0
1.526652875E1,-1.518237730E0,-1.187229045E0,2.564764202E-2,1.927489666E0
1.527657675E1,-1.461790465E0,-1.196962393E0,1.284808695E-1,1.893688904E0
1.528662475E1,-1.364302177E0,-1.199121478E0,1.341257715E-1,1.821318882E0
1.529667175E1,-1.276792747E0,-1.187812378E0,1.296918279E-1,1.748690348E0
1.530671975E1,-1.206166861E0,-1.165221222E0,7.993085325E-2,1.678978241E0
1.531676675E1,-1.092803967E0,-1.114896795E0,2.527809799E-2,1.561362980E0
1.532681475E1,-9.468261820E-1,-1.079841421E0,-6.739149928E-2,1.437733956E0
1.533686275E1,-8.318316230E-1,-1.079591233E0,-1.738336283E-1,1.373928386E0
1.534690975E1,-7.409895730E-1,-1.086137849E0,-1.973745185E-1,1.329555443E0
1.535695775E1,-6.794534755E-1,-1.051072170E0,-3.767828822E-2,1.252129939E0
1.536700575E1,-6.523691726E-1,-1.036870672E0,3.755432725E-1,1.281295858E0
1.537705275E1,-6.307993788E-1,-1.116756282E0,9.334904373E-1,1.586334406E0
1.538710075E1,-6.246864071E-1,-1.272634792E0,1.418362024E0,2.005388554E0
1.539714775E1,-5.995042035E-1,-1.459910000E0,1.701202955E0,2.320524508E0
1.540719575E1,-5.840473813E-1,-1.632256681E0,1.804231480E0,2.502123988E0
1.541724375E1,-5.047506586E-1,-1.743257592E0,1.791875144E0,2.550399339E0
1.542729075E1,-3.585816693E-1,-1.803955784E0,1.679774664E0,2.490879404E0
1.543733875E1,-1.939813793E-1,-1.841213657E0,1.432015858E0,2.340590935E0
1.544738575E1,-2.731614500E-2,-1.810269607E0,1.223798847E0,2.185293079E0
1.545743375E1,2.886478007E-2,-1.785125556E0,1.034519799E0,2.063428613E0
1.546748175E1,9.601128101E-3,-1.795146076E0,9.226707494E-1,2.018406036E0
1.547752875E1,-1.653133580E-1,-1.908465408E0,8.860104614E-1,2.110588367E0
1.548757675E1,-4.876756194E-1,-2.138346645E0,8.965062135E-1,2.369404413E0
1.549762475E1,-7.858365476E-1,-2.466328080E0,7.877491719E-1,2.705709156E0
1.550767175E1,-1.029349983E0,-2.769326702E0,4.866234130E-1,2.994250176E0
1.551771975E1,-1.157169240E0,-2.938146928E0,1.167174411E-1,3.159963763E0
1.552776675E1,-1.116154823E0,-2.951006709E0,-3.351588929E-1,3.172786421E0
1.553781475E1,-8.891559711E-1,-2.844164046E0,-8.165513867E-1,3.089761096E0
1.554786275E1,-5.562695986E-1,-2.669232018E0,-1.238995761E0,2.994886630E0
1.555790975E1,-2.312708277E-1,-2.492563660E0,-1.564560542E0,2.951983991E0
1.556795775E1,1.025177702E-1,-2.297790129E0,-1.772612661E0,2.903877583E0
1.557800475E1,4.596183398E-1,-2.076178902E0,-1.881088452E0,2.839059988E0
1.558805275E1,8.183233854E-1,-1.896873449E0,-1.878813885E0,2.792440448E0
1.559810075E1,1.112214384E0,-1.717083554E0,-1.771619219E0,2.706294778E0
1.560814775E1,1.312362530E0,-1.547783126E0,-1.528228868E0,2.540356567E0
1.561819575E1,1.390353277E0,-1.417864719E0,-1.223932164E0,2.332687835E0
1.562824375E1,1.359917350E0,-1.237825587E0,-9.447089052E-1,2.067380540E0
1.563829075E1,1.307178681E0,-9.564803005E-1,-7.138707715E-1,1.770079701E0
1.564833875E1,1.163401495E0,-6.140791194E-1,-6.187342340E-1,1.453763480E0
1.565838575E1,9.363468021E-1,-3.580552007E-1,-6.461822337E-1,1.192686187E0
1.566843375E1,7.529886442E-1,-1.844328761E-1,-8.279534572E-1,1.134246142E0
1.567848175E1,6.644422111E-1,-9.701700211E-2,-1.024614031E0,1.225042719E0
1.568852875E1,6.763500658E-1,-4.535041988E-2,-1.083812996E0,1.278341380E0
1.569857675E1,6.786260945E-1,-1.761013247E-2,-1.050938780E0,1.251125818E0
1.570862375E1,6.896966279E-1,-5.089211851E-2,-1.016281748E0,1.229268091E0
1.571867175E1,7.554897907E-1,-1.148253552E-1,-1.103874793E0,1.342568153E0
1.572871975E1,8.530710492E-1,-1.416896566E-1,-1.237718729E0,1.509885368E0
1.573876675E1,1.011973812E0,-1.489959718E-1,-1.307604650E0,1.660156835E0
1.574881475E1,1.203308742E0,-1.275010224E-1,-1.349875926E0,1.812835750E0
1.575886275E1,1.372510206E0,-1.061351502E-1,-1.241467379E0,1.853723331E0
1.576890975E1,1.498208678E0,-1.041016348E-1,-1.005717584E0,1.807466252E0
1.577895775E1,1.624086952E0,-6.484035909E-2,-7.125826299E-1,1.774721585E0
1.578900475E1,1.748946348E0,1.666807294E-2,-4.116048056E-1,1.796805407E0
1.579905275E1,1.808047665E0,7.887543082E-2,-1.880949873E-1,1.819515709E0
1.580910075E1,1.844820512E0,4.884734720E-2,-4.995568693E-2,1.846143103E0
1.581914775E1,1.870749990E0,-5.978368700E-2,7.122610331E-2,1.873059735E0
1.582919575E1,1.963480690E0,-1.608924244E-1,1.514177424E-1,1.975871991E0
1.583924375E1,2.066263632E0,-2.320748198E-1,1.826348573E-1,2.087261270E0
1.584929075E1,2.177216011E0,-2.528580169E-1,1.309554112E-1,2.195758651E0
1.585933875E1,2.277842791E0,-2.091861865E-1,7.323871493E-2,2.288600129E0
1.586938575E1,2.336155611E0,-1.157570359E-1,-5.144380331E-2,2.339587399E0
1.587943375E1,2.335675263E0,-3.440574780E-2,-2.730474293E-1,2.351832814E0
1.588948175E1,2.309345250E0,5.031704485E-2,-5.790848494E-1,2.381374929E0
1.589952875E1,2.250971035E0,1.096295924E-1,-8.994713366E-1,2.426507353E0
1.590957675E1,2.181765144E0,1.168219601E-1,-1.246248062E0,2.515329153E0
1.591962375E1,2.145247529E0,8.700423002E-2,-1.509853408E0,2.624750275E0
1.592967175E1,2.095019069E0,9.177965105E-2,-1.654248059E0,2.670967062E0
1.593971975E1,2.055646842E0,8.364061922E-2,-1.659961374E0,2.643511198E0
1.594976675E1,1.967963166E0,7.540583923E-2,-1.476759921E0,2.461581794E0
1.595981475E1,1.814840668E0,1.111937226E-1,-1.170302086E0,2.162317661E0
1.596986275E1,1.590034229E0,1.394220333E-1,-8.477872127E-1,1.807315831E0
1.597990975E1,1.349306700E0,1.415220608E-1,-5.748374319E-1,1.473463653E0
1.598995775E1,1.139567659E0,1.652651185E-1,-4.192547178E-1,1.225439320E0
1.600000475E1,9.189484119E-1,1.415435493E-1,-3.609603167E-1,9.973931574E-1
1.601005275E1,7.244279194E-1,9.529879779E-2,-3.827417797E-1,8.248447982E-1
1.602010075E1,5.915657312E-1,5.217762887E-3,-5.127902877E-1,7.828991752E-1
1.603014775E1,5.258602765E-1,-1.235762250E-1,-6.713387096E-1,8.616819464E-1
1.604019638E1,4.979079545E-1,-2.659829696E-1,-7.908809406E-1,9.716748084E-1
1.605024338E1,5.666706258E-1,-3.145898500E-1,-9.507952720E-1,1.150692844E0
1.606029138E1,7.108708575E-1,-2.998237301E-1,-1.092677375E0,1.337600647E0
1.607033938E1,8.376805928E-1,-2.379226202E-1,-1.151734838E0,1.443886798E0
1.608038638E1,8.516685945E-1,-2.584074631E-1,-1.181884836E0,1.479515318E0
1.609043438E1,6.904640749E-1,-3.254264948E-1,-1.118795133E0,1.354380151E0
1.610048238E1,3.819155681E-1,-4.705643275E-1,-9.577446878E-1,1.133386595E0
1.611052938E1,7.582727730E-2,-6.702131206E-1,-8.996666336E-1,1.124426723E0
1.612057738E1,-1.732933456E-1,-8.234385297E-1,-9.176801509E-1,1.245077690E0
1.613062438E1,-3.492041972E-1,-8.644760433E-1,-1.000725816E0,1.367740677E0
1.614067238E1,-4.214439154E-1,-8.176337063E-1,-1.148663296E0,1.471586633E0
1.615072038E1,-3.799570432E-1,-7.531196219E-1,-1.272683324E0,1.526852764E0
1.616076738E1,-2.533466980E-1,-6.277605808E-1,-1.302652643E0,1.468050342E0
1.617081538E1,-1.251309997E-1,-5.291972825E-1,-1.223973094E0,1.339334785E0
1.618086338E1,4.368630230E-2,-5.300097531E-1,-9.819047982E-1,1.116671780E0
1.619091038E1,2.165329206E-1,-5.473780301E-1,-5.828422701E-1,8.283805438E-1
1.620095838E1,3.923893932E-1,-6.020939353E-1,-1.039535540E-1,7.261493539E-1
1.621100538E1,4.807633334E-1,-7.212936656E-1,3.534776348E-1,9.361326686E-1
1.622105338E1,4.989861810E-1,-8.679345252E-1,6.409419590E-1,1.188740570E0
1.623110138E1,4.990876302E-1,-9.474910104E-1,6.667053759E-1,1.261476807E0
1.624114838E1,5.210889485E-1,-9.031454346E-1,4.714060342E-1,1.144302852E0
1.625119638E1,5.703184113E-1,-7.021269313E-1,4.865585089E-2,9.058767630E-1
1.626124338E1,7.146048895E-1,-4.386035930E-1,-5.588909054E-1,1.007666762E0
1.627129138E1,9.553932300E-1,-1.778167516E-1,-1.166571563E0,1.518316249E0
1.628133938E1,1.253605614E0,1.111254564E-1,-1.650874801E0,2.075876564E0
1.629138638E1,1.495573922E0,4.097658563E-1,-1.929660103E0,2.475527727E0
1.630143438E1,1.672774377E0,6.320897131E-1,-1.981407961E0,2.669023985E0
1.631148238E1,1.739911523E0,7.340670544E-1,-1.787570423E0,2.600298938E0
