"Time (s)","Linear Acceleration x (m/s^2)","Linear Acceleration y (m/s^2)","Linear Acceleration z (m/s^2)","Absolute acceleration (m/s^2)"
9.244583780E-4,-9.846236072E-1,-3.602399397E-1,-1.916337807E0,2.184400845E0
1.097745844E-2,-1.130279065E0,-5.100058436E-1,-2.129748314E0,2.464440019E0
2.103045839E-2,-1.333449636E0,-5.656000006E-1,-2.374919143E0,2.781767824E0
3.108345834E-2,-1.492603391E0,-4.956763646E-1,-2.485361352E0,2.941187004E0
4.113645840E-2,-1.393674057E0,-3.736999378E-1,-2.582140957E0,2.957943702E0
5.118945835E-2,-1.003532479E0,-3.159127825E-1,-3.239567387E0,3.406123188E0
6.124245841E-2,-5.400403592E-1,-3.090993145E-1,-3.724044287E0,3.775671043E0
7.129545836E-2,1.290944617E-2,-4.530589333E-1,-3.065750715E0,3.099073490E0
8.134845842E-2,-5.007207941E-1,-2.800518090E-1,-1.002587569E0,1.155132964E0
9.140145837E-2,4.692676709E-1,-1.768192458E0,-5.125335950E-1,1.899844047E0
1.014544584E-1,3.774578556E0,-2.495028261E0,1.192516243E-1,4.526237979E0
1.115074584E-1,9.693120883E-1,-2.593640384E0,-3.836404967E-1,2.795302559E0
1.215604584E-1,-1.277078969E0,-7.580333295E-1,-1.617680742E0,2.196004600E0
1.316134584E-1,-8.932177395E-1,-5.225244400E-1,-2.907074239E0,3.085765764E0
1.416664583E-1,-9.892051931E-1,-1.431845411E0,-3.424063413E0,3.840952805E0
1.517194584E-1,-3.576575754E0,-2.839718408E0,-4.270926180E0,6.252735817E0
1.617714583E-1,-4.821231034E0,-3.042690466E0,-3.555818723E0,6.719083327E0
1.718244584E-1,-3.817205050E0,-2.356618966E0,-1.882117562E0,4.864881690E0
1.818774584E-1,-3.111138265E0,-2.440930991E0,-9.326063383E-1,4.062890595E0
1.919304584E-1,-2.572947965E0,-2.343535236E0,-6.583842033E-1,3.541989327E0
2.019834584E-1,-2.093212133E0,-1.934939992E0,-6.607681131E-1,2.926114199E0
2.120364584E-1,-2.261074585E0,-1.751355401E0,-1.177014690E0,3.092744348E0
2.220894584E-1,-2.497401061E0,-1.694606127E0,-2.070608990E0,3.660071526E0
2.321424584E-1,-2.586236639E0,-1.789149026E0,-2.956953912E0,4.316624912E0
2.421954584E-1,-2.382468921E0,-2.005589560E0,-3.931385969E0,5.015410580E0
2.522484584E-1,-1.951793130E0,-2.234697503E0,-4.931613017E0,5.755360658E0
2.623014584E-1,-1.910707376E0,-2.927752917E0,-6.331948661E0,7.232987879E0
2.723544583E-1,-1.895237106E0,-3.237186985E0,-7.861707745E0,8.710783657E0
2.824074584E-1,-1.653665092E0,-3.056019486E0,-8.163119432E0,8.871887184E0
2.924604584E-1,-1.340585285E0,-3.023454004E0,-6.933157620E0,7.681609050E0
3.025134584E-1,-5.708759798E-1,-3.107263023E0,-4.613746095E0,5.591747125E0
3.125664584E-1,9.169693122E-2,-3.342913415E0,-1.958559966E0,3.875491655E0
3.226194584E-1,1.619088898E-1,-3.496757167E0,7.383162260E-2,3.501282091E0
3.326724584E-1,3.016182406E-1,-3.598901885E0,8.404682529E-1,3.708025785E0
3.427254584E-1,6.779987613E-1,-4.310537266E0,6.758229393E-1,4.415557777E0
3.527784584E-1,1.752806972E0,-4.243213302E0,1.480322630E0,4.823748179E0
3.628314584E-1,1.463443034E0,-3.067662462E0,2.154475604E0,4.024174900E0
3.728844584E-1,1.716964564E0,-2.320165962E0,1.668855574E0,3.334099028E0
3.829374583E-1,2.805903375E0,-2.969758145E0,1.441574886E0,4.332516052E0
3.929894584E-1,3.632599389E0,-3.542847260E0,8.952847302E-1,5.152579914E0
4.030424583E-1,4.219119557E0,-3.367624918E0,2.368391311E-1,5.403513690E0
4.130954584E-1,4.533213856E0,-3.136412270E0,-7.223123968E-2,5.512923647E0
4.231484584E-1,4.959288474E0,-2.799898577E0,1.455983595E0,5.878253349E0
4.332014584E-1,4.110049982E0,-2.273422296E0,3.444003003E0,5.824269609E0
4.432544584E-1,2.911473684E0,-1.556480860E0,4.549520863E0,5.621161069E0
4.533074584E-1,2.306673658E0,-1.204590744E0,5.194673987E0,5.810027543E0
4.633604584E-1,1.969583429E0,-1.664661950E0,5.188675328E0,5.794196231E0
4.734134584E-1,2.230582671E0,-1.721726097E0,4.391636685E0,5.217883918E0
4.834664584E-1,2.838568553E0,-1.486739364E0,3.332883101E0,4.623415959E0
4.935194583E-1,3.707991633E0,-1.134279730E0,2.190699690E0,4.453645427E0
5.035724584E-1,4.547255360E0,-1.087166959E0,1.333495536E0,4.861859073E0
5.136254583E-1,5.071935668E0,-1.108614546E0,7.191654253E-1,5.241255245E0
5.236784584E-1,5.090520458E0,-1.252036221E0,4.250276738E-1,5.259433597E0
5.337314584E-1,4.919992261E0,-1.105549436E0,8.796773422E-1,5.118827564E0
5.437844584E-1,4.395016668E0,-7.028540325E-1,1.477695476E0,4.689750444E0
5.538374584E-1,3.876273623E0,-5.300296336E-1,1.961733835E0,4.376622927E0
5.638904584E-1,3.509076666E0,-4.869420862E-1,2.457354943E0,4.311533945E0
5.739434584E-1,3.100265952E0,-5.440670443E-1,2.699247823E0,4.146516216E0
5.839964584E-1,2.914267484E0,-4.249762183E-1,2.776242204E0,4.047354757E0
5.940494584E-1,2.899137813E0,-2.389072913E-1,2.850713512E0,4.072915944E0
6.041024583E-1,2.835142377E0,-5.560000420E-2,2.986143798E0,4.118030893E0
6.141544584E-1,2.884847803E0,1.303320980E-1,2.849106113E0,4.056690639E0
6.242074583E-1,2.899632488E0,1.649639869E-1,2.589866883E0,3.891335523E0
6.342604584E-1,2.828842587E0,-2.801985741E-3,2.204334227E0,3.586286048E0
6.443134584E-1,2.832133985E0,-2.997972715E-1,1.727522442E0,3.330945076E0
6.543664584E-1,2.566788508E0,-5.952179021E-1,1.623210454E0,3.094753588E0
6.644194584E-1,1.944897362E0,-7.339372462E-1,2.314411570E0,3.110914744E0
6.744724584E-1,1.176695432E0,-5.524531209E-1,3.096597117E0,3.358382095E0
6.845254584E-1,4.727894855E-1,-2.486750650E-1,3.519931729E0,3.560237150E0
6.945784584E-1,-1.255309492E-1,9.877116680E-3,3.952332450E0,3.954337791E0
7.046314584E-1,-3.698352206E-1,9.548561633E-2,3.798486651E0,3.817642785E0
7.146844583E-1,-3.006047720E-1,1.388848203E-1,3.265850036E0,3.282594809E0
7.247374584E-1,3.671525180E-2,7.218797028E-2,2.581853274E0,2.583123195E0
7.347904583E-1,3.775055981E-1,9.178374410E-2,2.068606904E0,2.104772970E0
7.448434584E-1,4.927454478E-1,1.149960208E-1,1.498059281E0,1.581203267E0
7.548964584E-1,6.656634021E-1,2.124761224E-2,9.511636466E-1,1.161150941E0
7.649494584E-1,1.177097136E0,1.438888675E-1,1.935858151E-1,1.201556133E0
7.750024584E-1,1.542769139E0,3.074430907E-1,-6.700134382E-1,1.709846741E0
7.850554584E-1,2.013551275E0,2.607103890E-1,-1.220649829E0,2.369038761E0
7.951084584E-1,2.466578341E0,3.136119032E-1,-1.557068212E0,2.933738665E0
8.051614584E-1,2.602039617E0,4.601612538E-1,-1.492093367E0,3.034584183E0
8.152147917E-1,2.789563331E0,9.611553687E-1,-9.514479674E-1,3.100118781E0
8.252677917E-1,2.679935054E0,1.773892032E0,-1.419986089E-1,3.216971937E0
8.353207917E-1,2.308792981E0,2.381399612E0,6.712068549E-1,3.384096302E0
8.453727918E-1,1.963228968E0,3.092036873E0,2.035342532E0,4.190176515E0
8.554257917E-1,2.016028156E0,3.597029899E0,1.658346227E0,4.444446627E0
8.654787918E-1,1.731095676E0,3.667796411E0,1.676864505E0,4.388769454E0
8.755317917E-1,1.631957304E0,3.557748889E0,2.142077753E0,4.461990464E0
8.855847918E-1,1.635679641E0,3.590880967E0,1.140299438E0,4.107329645E0
8.956377917E-1,5.902612174E-1,3.381225541E0,1.834101396E0,3.891660622E0
9.056907917E-1,-6.868028408E-1,3.235876624E0,2.785363861E0,4.324447653E0
9.157437917E-1,-2.714972740E0,2.939590021E0,3.771358202E0,5.498673399E0
9.257967917E-1,-4.664498173E0,2.813472011E0,4.308721998E0,6.945376391E0
9.358497917E-1,-5.084096122E0,2.643766517E0,4.094277703E0,7.042772514E0
9.459027917E-1,-4.140597006E0,2.263575293E0,4.418203509E0,6.464428739E0
9.559557918E-1,-2.442580783E0,2.530864384E0,5.150747364E0,6.237120636E0
9.660087917E-1,-5.340332222E-1,3.771959295E0,5.542607877E0,6.725575848E0
9.760617918E-1,5.304997498E-1,3.567031344E0,3.616232155E0,5.107081122E0
9.861147917E-1,1.458627121E0,2.293119519E0,1.896117550E-1,2.724324288E0
9.961677918E-1,1.278567962E0,-5.311756879E-1,-1.142187650E0,1.794847145E0
1.006220792E0,1.814940071E0,-6.854603201E-1,-2.123946268E0,2.876631895E0
1.016273792E0,2.223137704E0,-5.988285577E-1,-1.996438083E0,3.047409049E0
1.026326792E0,2.294332817E0,-5.308535063E-1,-1.600155321E0,2.847150430E0
1.036379792E0,1.717363490E0,-6.914753509E-1,-2.883745018E0,3.426873334E0
1.046432792E0,5.415749609E-1,-5.096512100E-1,-3.951408589E0,4.020780725E0
1.056484792E0,-1.252238535E0,-7.462324789E-1,-3.751434399E0,4.024701767E0
1.066538792E0,-2.745151389E0,-5.473163420E-1,-2.384625813E0,3.677207037E0
1.076590792E0,-3.012863819E0,1.962021518E-1,7.017921782E-1,3.099734817E0
1.086643792E0,-3.174232353E0,9.736061373E-1,3.392791919E0,4.747072460E0
1.096696792E0,-2.946585630E0,1.715042730E0,2.630540700E0,4.306214441E0
1.106749792E0,-2.731446100E0,2.995585004E0,1.521166162E0,4.329927691E0
1.116802792E0,-2.369775932E0,7.869443026E-1,-1.912586233E0,3.145330730E0
1.126855792E0,-1.147604365E0,-2.040061674E0,-3.269248438E0,4.020800015E0
1.136908792E0,-2.840501350E-1,-2.766636691E0,-3.000695179E0,4.091348752E0
1.146961792E0,3.647189069E-1,-2.738951586E0,-1.978693245E0,3.398544193E0
1.157014792E0,9.851102418E-1,-2.057199278E0,-5.052386087E-1,2.336188586E0
1.167067792E0,1.067638428E0,-1.264827882E0,9.394779861E-1,1.903223653E0
1.177120792E0,4.435551614E-1,-5.266666076E-1,1.835908917E0,1.960785671E0
1.187173792E0,-8.249947661E-1,-1.540016270E-1,2.015227818E0,2.182997028E0
1.197226792E0,-2.470198937E0,2.672966927E-2,1.834089702E0,3.076764908E0
1.207279792E0,-4.061211113E0,5.556685048E-1,1.605653604E0,4.402309245E0
1.217332792E0,-5.646043367E0,7.931666172E-1,1.107202443E0,5.807995888E0
1.227385792E0,-6.299612389E0,7.756781799E-1,6.212292409E-1,6.377516653E0
1.237438792E0,-5.577813962E0,8.754790413E-1,1.585149612E0,5.864398643E0
1.247491792E0,-4.352299542E0,1.650931519E0,9.102457085E-1,4.743061609E0
1.257544792E0,-3.586062861E0,1.820312492E0,-1.867680494E0,4.434141951E0
1.267597792E0,-2.805652530E0,5.279679054E-1,-2.642822776E0,3.890366108E0
1.277650792E0,-2.482098021E0,-1.091532490E0,-2.969194181E0,4.020990904E0
1.287702792E0,-6.568516481E-1,-2.131600712E0,-3.358352988E0,4.031589075E0
1.297755792E0,6.618931174E-2,-2.527862424E0,-1.945910684E0,3.190773864E0
1.307808792E0,-2.223286808E0,1.411757594E0,-1.035158461E0,2.829773272E0
1.317861792E0,-1.257505707E0,1.349563100E0,-1.507445671E0,2.382232905E0
1.327914792E0,-1.321184224E-1,2.596507566E0,-1.757422180E0,3.138126756E0
1.337967792E0,8.523199743E-1,3.217793525E0,-3.235495386E0,4.642098114E0
1.348020792E0,1.564525459E0,2.589705500E0,-2.413663963E0,3.870411892E0
1.358073792E0,1.728611194E0,2.804564947E0,-8.739020473E-1,3.408428669E0
1.368126792E0,2.097469345E0,2.680595205E0,-9.157441378E-1,3.524706460E0
1.378179792E0,2.238605051E0,2.653962307E0,-1.059507290E0,3.630072203E0
1.388232792E0,2.440419068E0,2.657606292E0,7.485850330E-1,3.684955357E0
1.398285792E0,2.453691078E0,2.553107777E0,3.732477726E0,5.144934324E0
1.408338792E0,1.627002958E0,2.368527551E0,4.564500260E0,5.393674445E0
1.418391792E0,7.185219392E-1,2.144932364E0,2.074606147E0,3.069364639E0
1.428444792E0,-2.885577536E-1,1.765879008E0,-1.402468708E0,2.273436325E0
1.438497792E0,-1.239350979E0,3.513108321E0,-1.947624503E0,4.203708140E0
1.448550792E0,-2.348539722E0,4.474799294E0,-2.673591410E0,5.717303436E0
1.458603792E0,-1.780112300E0,9.951464027E-1,-2.618455675E0,3.318949575E0
1.468656792E0,2.649461997E0,-5.576831045E0,-1.557371975E0,6.367582025E0
1.478709792E0,4.909906983E0,-1.064759259E1,-1.530743755E0,1.182461801E1
1.488762792E0,5.753677159E0,-1.554993094E1,-7.818264540E-1,1.659868687E1
1.498815792E0,5.865796934E0,-1.995942385E1,-3.756801704E-1,2.080690534E1
1.508867792E0,3.378028284E0,-2.211616935E1,6.310292474E-1,2.238155981E1
1.518920792E0,-2.133254889E0,-1.819383136E1,1.508500947E0,1.838047472E1
1.528973792E0,-5.320472739E0,-8.961702325E0,2.080338757E0,1.062766899E1
1.539026792E0,-6.007940408E0,-2.448487056E0,2.210703599E0,6.854024162E0
1.549079792E0,-6.276764393E0,1.287897195E0,2.027885724E0,6.720771603E0
1.559132792E0,-5.843758779E0,3.791788373E0,1.685173398E0,7.167076469E0
1.569185792E0,-4.644322940E0,4.971292807E0,1.282846370E0,6.923090535E0
1.579238792E0,-2.581479637E0,4.536940579E0,9.583903666E-1,5.307200677E0
1.589291792E0,-4.267640045E-1,2.641403072E0,6.824517815E-1,2.761318189E0
1.599344792E0,6.577702457E-1,3.780306780E-1,3.641213945E-1,8.415184369E-1
1.609397792E0,1.123513836E0,-1.104574705E0,1.645881571E-2,1.575639398E0
1.619450792E0,1.465202315E0,-1.397468753E0,-4.724081739E-1,2.079159980E0
1.629503792E0,1.582250708E0,-1.048696373E0,-9.213948870E-1,2.110035527E0
1.639556792E0,1.464463519E0,-3.651200259E-1,-1.208320098E0,1.933391707E0
1.649609792E0,1.265141585E0,3.480368006E-1,-1.213282045E0,1.787111123E0
1.659662792E0,1.169010144E0,8.360676384E-1,-9.809628848E-1,1.740081031E0
1.669715792E0,1.200429280E0,1.011212212E0,-6.671439902E-1,1.705479903E0
1.679768792E0,1.232309177E0,9.042970437E-1,-3.052889764E-1,1.558698306E0
1.689821792E0,1.124953128E0,5.762512887E-1,3.702449642E-2,1.264498281E0
1.699874792E0,8.075431663E-1,1.755275667E-1,2.461970881E-1,8.622928147E-1
1.709927792E0,4.766357839E-1,-1.687974215E-2,3.408600743E-1,5.862185484E-1
1.719979792E0,3.033766446E-1,7.075130939E-4,3.316915671E-1,4.495077137E-1
1.730032792E0,7.802846164E-2,5.355464816E-3,2.105068532E-1,2.245668210E-1
1.740085792E0,-8.451653212E-2,4.543286562E-4,8.563948989E-2,1.203219550E-1
1.750138792E0,-1.992064512E-1,-6.559172630E-2,-9.267763719E-3,2.099318370E-1
1.760191792E0,-2.765399712E-1,-1.260782486E-1,-5.570985876E-2,3.089881370E-1
1.770244792E0,-3.443054000E-1,-1.597529483E-1,1.572316289E-2,3.798873922E-1
1.780297792E0,-4.279784712E-1,-1.056317049E-1,1.291393391E-1,4.593480138E-1
1.790350792E0,-4.577788058E-1,-1.123250127E-3,2.310609126E-1,5.127883014E-1
1.800403792E0,-4.095267051E-1,8.100030899E-2,2.601064447E-1,4.918623129E-1
1.810457042E0,-3.223675239E-1,9.511080980E-2,1.974441735E-1,3.898090407E-1
1.820510042E0,-2.063403466E-1,8.664404154E-2,8.935130239E-2,2.409713340E-1
1.830563042E0,-1.321128675E-1,7.454849124E-2,-3.643517017E-2,1.560090028E-1
1.840616042E0,-6.484182090E-2,4.403771996E-2,-1.444051035E-1,1.643064711E-1
1.850669042E0,-4.430230647E-2,6.491578817E-3,-2.086812063E-1,2.134307401E-1
1.860722042E0,-1.961565435E-2,4.116673708E-2,-2.312234652E-1,2.356772475E-1
1.870775042E0,-2.635778636E-2,6.415155709E-2,-2.062394822E-1,2.175887846E-1
1.880828042E0,-3.353992134E-2,8.502202392E-2,-1.380129274E-1,1.655331961E-1
1.890881042E0,-3.459972918E-2,1.244392741E-1,-6.097586118E-2,1.428297232E-1
1.900934042E0,-2.430249006E-2,1.954958081E-1,4.412316240E-2,2.018813401E-1
1.910987042E0,-8.618503511E-3,2.834051871E-1,1.014305536E-1,3.011327546E-1
1.921039042E0,6.393053234E-3,3.399927860E-1,1.206701589E-1,3.608285645E-1
1.931092042E0,7.464146197E-2,3.437870443E-1,7.068238534E-2,3.588270882E-1
1.941145042E0,1.154857251E-1,3.117384553E-1,-8.623400554E-3,3.325540261E-1
1.951198042E0,1.378580493E-1,2.597134387E-1,-7.021797024E-2,3.023019606E-1
1.961251042E0,1.189101470E-1,1.895597148E-1,-1.108585310E-1,2.497240926E-1
1.971304042E0,7.040661603E-2,1.466458297E-1,-1.247539274E-1,2.050015447E-1
1.981357042E0,-4.738378912E-2,1.455407059E-1,-9.118023835E-2,1.781604794E-1
1.991410042E0,-1.702039692E-1,2.380091590E-1,-2.421448946E-2,2.936053344E-1
2.001463042E0,-2.899584541E-1,2.737233675E-1,6.113505162E-2,4.034078352E-1
2.011516042E0,-3.335608488E-1,1.455085462E-1,1.551149368E-1,3.955960320E-1
2.021569042E0,-3.118986690E-1,-2.163820624E-2,2.274976194E-1,3.866576761E-1
2.031622042E0,-2.275669089E-1,-1.759754634E-1,3.049811936E-1,4.192464552E-1
2.041675042E0,-1.386155561E-1,-2.848313230E-1,3.599333994E-1,4.794738856E-1
2.051728042E0,-4.268905967E-2,-3.247496796E-1,3.997131769E-1,5.167739680E-1
2.061781042E0,5.571694851E-2,-3.121530229E-1,4.304344480E-1,5.346192122E-1
2.071834042E0,1.459494263E-1,-2.915310627E-1,4.799837534E-1,5.802378815E-1
2.081887042E0,2.313377783E-1,-2.996926063E-1,5.476408625E-1,6.657652290E-1
2.091940042E0,2.835665703E-1,-3.387946916E-1,6.526650417E-1,7.881392640E-1
2.101993042E0,3.091250423E-1,-4.060768479E-1,7.384776092E-1,8.976669078E-1
2.112046042E0,2.853663433E-1,-4.534983516E-1,8.394461596E-1,9.958737669E-1
2.122099042E0,2.367590243E-1,-3.999910659E-1,8.905649308E-1,1.004566366E0
2.132152042E0,2.070177466E-1,-3.113490307E-1,8.752276111E-1,9.517446808E-1
2.142204042E0,2.327229837E-1,-2.264135456E-1,8.019222379E-1,8.651603067E-1
2.152257042E0,2.964459398E-1,-1.417411852E-1,7.004485611E-1,7.736917639E-1
2.162310042E0,3.490188405E-1,-4.500718832E-2,5.918130684E-1,6.885364957E-1
2.172363042E0,3.749187899E-1,8.033255696E-2,5.052600972E-1,6.342753224E-1
2.182416042E0,3.858983991E-1,1.342222506E-1,3.901894514E-1,5.649610561E-1
2.192469042E0,3.813153514E-1,1.129418939E-1,2.461678521E-1,4.677134593E-1
2.202522042E0,3.618587413E-1,8.623999894E-2,5.165320672E-2,3.755624314E-1
2.212575042E0,2.819489381E-1,4.855060101E-2,-1.345198739E-1,3.161454744E-1
2.222628042E0,1.952739063E-1,9.693221748E-2,-2.868328249E-1,3.602788125E-1
2.232681042E0,7.508877397E-2,1.589705908E-1,-3.602013481E-1,4.008178937E-1
2.242734042E0,1.521884054E-2,1.528584963E-1,-3.064515491E-1,3.427971484E-1
2.252787042E0,-8.919927478E-4,1.534367859E-2,-1.489811345E-1,1.497718350E-1
2.262840042E0,3.394308686E-2,-1.385123527E-1,9.644265935E-2,1.721597849E-1
2.272893042E0,-2.520033002E-2,-2.039315861E-1,2.891516845E-1,3.547278465E-1
2.282946042E0,-1.323283374E-1,-1.748820341E-1,4.357801187E-1,4.878512341E-1
2.292999042E0,-2.337289971E-1,-1.279844409E-1,4.994656527E-1,5.661052901E-1
2.303052042E0,-2.950844157E-1,-1.024063808E-1,4.723535755E-1,5.662859521E-1
2.313105042E0,-3.009292924E-1,-1.227313024E-1,4.119937916E-1,5.247478404E-1
2.323158042E0,-2.454339534E-1,-1.848404270E-1,3.349415226E-1,4.545213224E-1
2.333211042E0,-1.434716687E-1,-1.751720560E-1,2.248185714E-1,3.190811165E-1
2.343264042E0,-7.163365424E-2,-1.052604067E-1,1.428359301E-1,1.913458559E-1
2.353316042E0,9.151769578E-3,-3.252396762E-2,3.712748051E-2,5.019973272E-2
2.363369042E0,6.342854887E-2,3.364546359E-2,-5.160620973E-2,8.842171065E-2
2.373422042E0,1.292114791E-1,6.232430220E-2,-1.406195430E-1,2.008825051E-1
2.383475042E0,1.679019204E-1,8.152071118E-2,-2.290062010E-1,2.954327696E-1
2.393528042E0,1.928715777E-1,1.159356683E-1,-2.949943686E-1,3.710285733E-1
2.403581042E0,2.116007942E-1,1.317582339E-1,-3.499334912E-1,4.296377271E-1
2.413634042E0,3.116475311E-1,1.345537877E-1,-3.891975443E-1,5.164335716E-1
2.423687042E0,3.796924567E-1,1.224594069E-1,-4.360128379E-1,5.909905776E-1
2.433740042E0,4.182071891E-1,1.298543805E-1,-4.668101227E-1,6.400555475E-1
2.443793042E0,4.152011356E-1,1.710632175E-1,-4.311758749E-1,6.225489880E-1
2.453846042E0,3.568976712E-1,1.703755850E-1,-3.638886023E-1,5.374185543E-1
2.463899042E0,2.696268082E-1,1.243451339E-1,-2.348417222E-1,3.785643440E-1
2.473952042E0,1.643892056E-1,7.318258166E-2,-1.089266109E-1,2.103437846E-1
2.484005042E0,4.200142711E-2,7.505135179E-2,2.465653896E-2,8.946938134E-2
2.494058042E0,-9.048712403E-2,4.235021353E-2,1.035271458E-1,1.438726177E-1
2.504111042E0,-1.347905999E-1,-1.791996181E-2,1.206328829E-1,1.817743747E-1
2.514164042E0,-1.395335689E-1,-5.456329286E-2,1.101347919E-1,1.859474177E-1
2.524217042E0,-7.119949847E-2,-5.354412317E-2,2.378881216E-2,9.220764227E-2
2.534270042E0,2.115493387E-2,-4.297060311E-2,-4.972939968E-2,6.904358878E-2
2.544323042E0,1.445016557E-1,-3.450266540E-2,-1.072985999E-1,1.832597936E-1
2.554375042E0,2.152026790E-1,-2.539679646E-2,-1.085639374E-1,2.423702103E-1
2.564428042E0,2.842445549E-1,1.091499746E-2,-7.502650112E-2,2.941820526E-1
2.574481042E0,3.001676926E-1,2.196623504E-2,-2.683287263E-2,3.021641313E-1
2.584534042E0,3.063122392E-1,2.885250092E-2,3.324375987E-2,3.094588862E-1
2.594587042E0,2.739581332E-1,4.627252579E-2,7.016191006E-2,2.865604631E-1
2.604640042E0,2.077237979E-1,3.614807189E-2,8.811388537E-2,2.285167742E-1
2.614693042E0,1.532707250E-1,2.731702209E-2,8.350744888E-2,1.766681320E-1
2.624746042E0,7.239349991E-2,8.012439609E-3,5.830244109E-2,9.329626281E-2
2.634799042E0,-4.148862630E-2,-1.226921260E-2,-3.778324574E-3,4.342943042E-2
2.644852042E0,-1.376130509E-1,-4.379973829E-2,-5.688507602E-2,1.552149501E-1
2.654905042E0,-2.286615077E-1,-6.109755635E-2,-9.795124099E-2,2.561512094E-1
2.664958042E0,-2.765984434E-1,-5.308453202E-2,-1.354387638E-1,3.125193197E-1
2.675011042E0,-2.999890602E-1,-5.623793542E-2,-1.058673477E-1,3.230542322E-1
2.685064042E0,-3.030883768E-1,-6.750668943E-2,-3.030027151E-3,3.105300281E-1
2.695117042E0,-2.895701990E-1,-1.106959784E-1,7.388073921E-2,3.186892897E-1
2.705170042E0,-2.541571221E-1,-1.306396616E-1,1.287790775E-1,3.134431602E-1
2.715223042E0,-1.694616652E-1,-1.393297935E-1,1.436460619E-1,2.622293622E-1
2.725276042E0,-1.006978244E-1,-9.505409181E-2,1.068074338E-1,1.748804166E-1
2.735329042E0,-2.281875908E-2,-6.558938742E-2,6.474139497E-2,9.494267602E-2
2.745382042E0,2.277899802E-2,-4.449087918E-2,4.851873368E-3,5.021814170E-2
2.755435042E0,6.294059873E-2,1.770653844E-2,-7.371716335E-2,9.853558060E-2
2.765487042E0,1.069897208E-1,5.251208961E-2,-1.313158920E-1,1.773363567E-1
2.775540042E0,1.339468467E-1,6.423809588E-2,-1.506114113E-1,2.115468930E-1
2.785593042E0,9.803090930E-2,9.569143832E-2,-1.616250806E-1,2.118716055E-1
2.795646042E0,4.898358732E-2,9.380629599E-2,-1.721956770E-1,2.021147302E-1
2.805699042E0,-1.702299893E-2,7.744169354E-2,-1.236838138E-1,1.469172699E-1
2.815751667E0,-6.938920051E-2,5.913289189E-3,-9.244681835E-2,1.157421374E-1
2.825804667E0,-6.630479425E-2,-5.734598279E-2,-7.111164406E-2,1.128793755E-1
2.835857667E0,-2.044098884E-2,-5.127598822E-2,1.606961042E-3,5.522357573E-2
2.845910667E0,2.793858111E-2,-1.185581446E-2,7.959215328E-2,8.518236622E-2
2.855963667E0,5.538979679E-2,7.027300715E-2,1.542871173E-1,1.783559354E-1
2.866016667E0,5.879404575E-2,1.078986704E-1,1.910248809E-1,2.271329302E-1
2.876069667E0,7.872398794E-2,9.321221888E-2,1.508219111E-1,1.939928681E-1
2.886122667E0,1.118551889E-1,2.204049468E-2,6.508535743E-2,1.312763133E-1
2.896175667E0,1.326604593E-1,-2.837478340E-2,1.364754751E-2,1.363458153E-1
2.906228667E0,1.175714269E-1,-4.244201481E-2,6.819022894E-3,1.251833221E-1
2.916281667E0,1.015111721E-1,-3.085049450E-2,1.800021484E-2,1.076117038E-1
2.926334667E0,8.994742602E-2,-2.959509730E-2,7.815870836E-2,1.227810772E-1
2.936387667E0,3.085166395E-2,-4.331208050E-2,1.143528271E-1,1.261123727E-1
2.946440667E0,-2.562746912E-2,-7.254055738E-2,1.768141003E-1,1.928266727E-1
2.956492667E0,-6.909683973E-2,-8.169905126E-2,1.880654588E-1,2.163740397E-1
2.966545667E0,-9.692607790E-2,-7.328139961E-2,1.617209749E-1,2.022832218E-1
2.976598667E0,-1.102501282E-1,-5.217412055E-2,1.161559622E-1,1.684322926E-1
2.986651667E0,-6.240528613E-2,-5.450306654E-2,6.316878632E-2,1.041887689E-1
2.996704667E0,-1.910285354E-2,-4.299691558E-2,-7.655174732E-3,4.766818082E-2
3.006757667E0,-3.537565470E-5,-3.897578537E-2,-2.541097596E-2,4.652774222E-2
3.016810667E0,-1.006335050E-2,-5.889315605E-2,4.470781088E-3,5.991379421E-2
3.026863667E0,-2.192705870E-4,-1.036571002E-1,6.469476342E-2,1.221894223E-1
3.036916667E0,2.831514180E-3,-1.188364720E-1,1.507542296E-1,1.919816718E-1
3.046969667E0,-7.383279204E-3,-8.714105487E-2,1.796605249E-1,1.998148654E-1
3.057022667E0,2.573739678E-2,-6.486257851E-2,2.204647346E-1,2.312450364E-1
3.067075667E0,9.015090913E-2,-1.408325279E-1,2.651443326E-1,3.134685063E-1
3.077128667E0,1.866010237E-1,-3.011035395E-1,3.342421956E-1,4.870329854E-1
3.087181667E0,2.243883625E-1,-4.969297153E-1,3.853293188E-1,6.676585677E-1
3.097234667E0,2.346168968E-1,-6.880921519E-1,4.260750563E-1,8.426481184E-1
3.107287667E0,2.200731173E-1,-7.182117444E-1,4.977183585E-1,9.011014655E-1
3.117340667E0,1.092634106E-1,-5.822978944E-1,6.129891984E-1,8.525051836E-1
3.127393667E0,-2.610167831E-2,-4.239102709E-1,7.109806390E-1,8.281755155E-1
3.137446667E0,-1.190382010E-1,-4.095840079E-1,8.083427730E-1,9.139732991E-1
3.147498667E0,-8.205076128E-2,-4.929501003E-1,8.799661946E-1,1.011964739E0
3.157551667E0,-5.094678998E-3,-5.670658976E-1,8.773535125E-1,1.044671658E0
3.167604667E0,2.232905477E-2,-5.713647705E-1,7.977696184E-1,9.815256755E-1
3.177657667E0,4.609067738E-3,-5.080499500E-1,6.310362641E-1,8.101498391E-1
3.187710667E0,-1.053931385E-2,-4.609833723E-1,4.266151929E-1,6.281856967E-1
3.197763667E0,-3.499178499E-2,-4.802055091E-1,2.742145336E-1,5.540896736E-1
3.207816667E0,-3.260904461E-2,-5.706970185E-1,2.279490244E-1,6.154016530E-1
3.217869667E0,3.237252474E-2,-6.557541257E-1,2.986863736E-1,7.213009105E-1
3.227922667E0,8.959717780E-2,-5.524086821E-1,3.618069935E-1,6.663987597E-1
3.237975667E0,7.400089949E-2,-2.693788862E-1,3.152584791E-1,4.212232497E-1
3.248028667E0,-4.422161490E-2,6.861122847E-3,1.974791837E-1,2.024861828E-1
3.258081667E0,-2.275911748E-1,1.819741219E-1,1.902464703E-2,2.920175699E-1
3.268134667E0,-3.733844805E-1,3.403021038E-1,-9.631767511E-2,5.142942607E-1
3.278187667E0,-4.590692863E-1,5.509860545E-1,-1.204666758E-1,7.272155539E-1
3.288240667E0,-5.343770385E-1,7.345740080E-1,-6.726388380E-2,9.108689382E-1
3.298293667E0,-5.816386208E-1,8.148755747E-1,-1.053668261E-2,1.001217613E0
3.308346667E0,-5.529887259E-1,6.640372914E-1,6.006968893E-2,8.662276969E-1
3.318399667E0,-3.744793716E-1,2.319894505E-1,1.952619195E-1,4.818517636E-1
3.328452667E0,-8.791054845E-2,-3.511779249E-1,3.274230997E-1,4.881189257E-1
3.338504667E0,2.458526140E-1,-8.034565473E-1,4.517840210E-1,9.539888536E-1
3.348557667E0,4.994080576E-1,-9.457321680E-1,6.137963334E-1,1.233111382E0
3.358610667E0,6.296129787E-1,-8.574725407E-1,8.036402229E-1,1.333232639E0
3.368663667E0,5.890984985E-1,-6.054312336E-1,9.797477603E-1,1.293634297E0
3.378716667E0,4.994910881E-1,-3.136522490E-1,1.148734705E0,1.291301863E0
3.388769667E0,4.443179306E-1,-8.111549914E-2,1.309314376E0,1.385027900E0
3.398822667E0,4.197593325E-1,2.095402354E-1,1.551504879E0,1.620886300E0
3.408875667E0,3.177730742E-1,7.479629624E-1,1.854559196E0,2.024800763E0
3.418928667E0,1.266410431E-1,1.496279681E0,2.277338469E0,2.727849215E0
3.428981667E0,1.254476264E-1,2.048970199E0,2.694325637E0,3.387241742E0
3.439034667E0,2.438373712E-1,2.286111047E0,2.388305758E0,3.315081413E0
3.449087667E0,1.253698584E-1,2.330198468E0,8.453272891E-1,2.481959050E0
3.459140667E0,1.946011841E-2,2.061163983E0,-6.779940104E-1,2.169896665E0
3.469193667E0,2.836630493E-1,1.543705278E0,-1.480938342E0,2.157931668E0
3.479246667E0,8.984191301E-1,1.144308289E0,-1.441544480E0,2.048084198E0
3.489299667E0,1.590385647E0,9.750085920E-1,1.205573076E-1,1.869358801E0
3.499352667E0,2.295992841E0,9.982454270E-1,3.459585832E0,4.270457960E0
3.509405667E0,2.241109998E0,1.329073872E0,4.571969494E0,5.262310940E0
3.519458667E0,6.597197074E-1,1.737939257E0,3.480280883E0,3.945632773E0
3.529510667E0,-1.301962964E0,1.956394742E0,2.828173081E0,3.677111764E0
3.539563667E0,-2.755942718E0,2.326107756E0,2.198837699E0,4.223847154E0
3.549616667E0,-3.586494678E0,2.578620933E0,7.535125548E-1,4.481072546E0
3.559669667E0,-4.115599574E0,2.435479340E0,-1.020819334E0,4.889968465E0
3.569722667E0,-4.320049224E0,2.221888154E0,-2.059118627E0,5.276322752E0
3.579775667E0,-4.202321384E0,1.872896503E0,-1.608694303E0,4.873924875E0
3.589828667E0,-3.308299360E0,1.480554764E0,-1.398539817E0,3.884945390E0
3.599881667E0,-2.325783528E0,1.364534311E0,-2.593745926E0,3.741489120E0
3.609934667E0,-2.304171049E0,9.108792543E-1,-2.622450785E0,3.607790648E0
3.619987667E0,-2.368343656E0,-3.864658713E-1,-1.872298917E-1,2.406961274E0
3.630040667E0,-2.245211235E0,-2.394473401E0,2.071929730E0,3.881670924E0
3.640093667E0,-1.767280585E0,-3.991594748E0,3.287513678E-1,4.377691945E0
3.650146667E0,-6.858213857E-1,-4.209272554E0,-2.526688887E0,4.957063964E0
3.660199667E0,7.362635610E-1,-4.571834423E0,-3.566476443E0,5.844955794E0
3.670252667E0,2.225696445E0,-5.812080318E0,-4.116499169E0,7.461874275E0
3.680305667E0,3.451688291E0,-7.486567930E0,-4.108649282E0,9.211072160E0
3.690358667E0,3.834184487E0,-8.981721438E0,-3.669801421E0,1.043262829E1
3.700411667E0,3.510034732E0,-9.501478683E0,-3.110888296E0,1.059604016E1
3.710464667E0,3.435090969E0,-9.315708548E0,-3.325786335E0,1.047106157E1
3.720517667E0,4.115540810E0,-9.212426255E0,-4.549530219E0,1.106818408E1
3.730569667E0,5.239198195E0,-9.895549443E0,-5.964646454E0,1.268653238E1
3.740622667E0,6.669811306E0,-1.079088212E1,-7.499442329E0,1.473672810E1
3.750675667E0,7.927669600E0,-1.106961889E1,-8.750886812E0,1.618525340E1
3.760728667E0,8.206562490E0,-1.022300287E1,-9.091951978E0,1.595371576E1
3.770781667E0,7.518745742E0,-8.130438175E0,-8.454237097E0,1.393232527E1
3.780834667E0,6.751136135E0,-5.909606613E0,-7.302520970E0,1.156840966E1
3.790887667E0,5.875726676E0,-4.584860265E0,-5.516366742E0,9.272292578E0
3.800940667E0,4.890504168E0,-3.747110968E0,-2.798035362E0,6.766599848E0
3.810993667E0,3.841815981E0,-2.439738452E0,2.026773584E0,4.981935859E0
3.821046333E0,1.823084950E0,-1.461570024E-1,1.661574270E1,1.671609721E1
3.831099333E0,-2.985177253E0,-5.810489291E-1,2.790462750E1,2.806986172E1
3.841152333E0,-4.258743214E0,-1.067510374E0,1.850476173E1,1.901848256E1
3.851205333E0,-5.501511891E0,-3.504616410E-1,1.449074992E1,1.550391208E1
3.861258333E0,-7.076013869E0,8.848187989E-1,1.109556766E1,1.318956020E1
3.871311333E0,-7.233161298E0,2.538083357E0,7.850623763E0,1.097236451E1
3.881364333E0,-6.808981470E0,4.643534735E0,5.971768363E0,1.017775323E1
3.891417333E0,-5.862736502E0,7.062745952E0,3.198390709E0,9.720275860E0
3.901470333E0,-4.117204050E0,9.207357888E0,-8.361880910E-1,1.012057404E1
3.911522333E0,-2.118259705E0,1.057386622E1,-4.087351676E0,1.153256757E1
3.921575333E0,-8.921982774E-1,1.104977110E1,-6.350992457E0,1.277609347E1
3.931628333E0,-3.267611217E-1,1.113434640E1,-7.356817630E0,1.334927744E1
3.941681333E0,-2.394262317E-1,1.150059494E1,-7.110355736E0,1.352324545E1
3.951734333E0,-3.384994072E-1,1.165219570E1,-6.247949315E0,1.322592594E1
3.961787333E0,-5.538631770E-1,1.148602251E1,-5.235631394E0,1.263516179E1
3.971840333E0,-8.047248083E-1,1.129490041E1,-4.128082795E0,1.205252774E1
3.981893333E0,-1.195722857E0,1.112440496E1,-3.151165672E0,1.162376806E1
3.991946333E0,-1.794949317E0,1.077799837E1,-2.389016780E0,1.118456494E1
4.001999333E0,-2.321546343E0,1.061636027E1,-1.416556404E0,1.095916580E1
4.012052333E0,-2.543355791E0,1.099760926E1,2.039448593E0,1.147063288E1
4.022105333E0,-1.037579354E0,1.146918019E1,6.648096501E0,1.329721219E1
4.032158333E0,5.566210163E-1,1.080213801E1,7.297409334E0,1.304791920E1
4.042211333E0,1.021171483E0,9.724044176E0,6.297725492E0,1.163018369E1
4.052264333E0,4.838679126E-1,8.239368879E0,5.257158503E0,9.785654970E0
4.062317333E0,-1.841074201E0,5.957329248E0,4.542810599E0,7.714690799E0
4.072370333E0,-4.938864734E0,4.053173531E0,5.279372075E0,8.288086030E0
4.082423333E0,-7.015551320E0,2.932952846E0,5.664562669E0,9.481953541E0
4.092476333E0,-7.751388327E0,1.556311875E0,6.202943881E0,1.004901191E1
4.102528333E0,-7.409119220E0,-5.755174631E-1,5.193419759E0,9.066304471E0
4.112581333E0,-5.557421798E0,-3.333616342E0,1.816428625E0,6.730330445E0
4.122634333E0,-2.646594523E0,-6.199973495E0,-1.560358294E0,6.919454597E0
4.132687333E0,2.681293362E-1,-8.907336668E0,-6.189411085E0,1.084994698E1
4.142740333E0,2.252985401E0,-1.205943789E1,-8.451307057E0,1.489733454E1
4.152793333E0,5.673019497E0,-1.808791489E1,-1.089442695E1,2.186422544E1
4.162846333E0,1.191405506E1,-2.519964239E1,-1.478110277E1,3.155071606E1
4.172899333E0,1.689773052E1,-3.196638649E1,-1.912121964E1,4.090237405E1
4.182952333E0,1.865004282E1,-3.501098958E1,-1.453577582E1,4.224786702E1
4.193005333E0,2.483860956E1,-3.064700438E1,7.637609696E0,4.018119566E1
4.203058333E0,3.314191775E1,-1.820314013E1,3.667173682E1,5.267406671E1
4.213111333E0,1.714456605E1,-1.123662940E1,6.584865296E-1,2.050930496E1
4.223164333E0,9.530152259E0,-1.277941959E1,-9.589676914E0,1.860374345E1
4.233217333E0,6.176952422E0,-1.458073390E1,-3.450141410E0,1.620666585E1
4.243270333E0,3.383488706E0,-1.453549867E1,-1.137113875E0,1.496735599E1
4.253323333E0,1.061812555E0,-1.248447785E1,3.769909261E0,1.308441244E1
4.263376333E0,-1.438409788E0,-8.752135193E0,8.023552827E0,1.196019620E1
4.273429333E0,-2.848843573E0,-4.802660862E0,8.522610344E0,1.018903077E1
4.283482333E0,-3.504719905E0,-1.563823793E0,6.285410671E0,7.364441172E0
4.293534333E0,-4.325540929E0,1.115146471E0,3.927467165E0,5.948012635E0
4.303587333E0,-5.198426145E0,3.675484330E0,1.990090492E0,6.670328299E0
4.313640333E0,-5.515538192E0,6.024927154E0,3.416960069E-1,8.175430565E0
4.323693333E0,-4.918459121E0,8.178981759E0,-2.982945371E-1,9.548610494E0
4.333746333E0,-3.576667847E0,1.015860632E1,-5.472409129E-2,1.076999675E1
4.343799333E0,-2.016469913E0,1.167503960E1,-3.028916180E-1,1.185176965E1
4.353852333E0,-2.708322117E-1,1.226387059E1,-1.158884228E0,1.232148061E1
4.363905333E0,6.763927504E-1,1.253587838E1,-2.009374609E0,1.271390342E1
4.373958333E0,8.171162277E-1,1.243857019E1,-2.440257100E0,1.270199047E1
4.384011333E0,7.388228872E-1,1.238139728E1,-2.726872408E0,1.269963350E1
4.394064333E0,6.312186241E-1,1.224110855E1,-2.501095040E0,1.250994212E1
4.404117333E0,4.020823225E-1,1.214402839E1,-1.785173650E0,1.228112132E1
4.414170333E0,6.087419271E-2,1.233749171E1,-9.485516953E-1,1.237405179E1
4.424223333E0,-7.297886467E-1,1.198952157E1,-2.811376186E-1,1.201500134E1
4.434276333E0,-1.738945855E0,1.173593952E1,4.364246646E-2,1.186415247E1
4.444329333E0,-2.662093445E0,1.147783991E1,1.679811684E-1,1.178370775E1
4.454382333E0,-3.389633837E0,1.110229664E1,3.640149021E-1,1.161391902E1
4.464434333E0,-3.915496160E0,1.081648825E1,6.414991987E-1,1.152124340E1
4.474487333E0,-4.353437995E0,1.052070100E1,8.371680844E-1,1.141658540E1
4.484540333E0,-4.545902606E0,9.982270668E0,9.872169936E-1,1.101297215E1
4.494593333E0,-4.182338817E0,9.514241985E0,1.376652081E0,1.048369827E1
4.504646333E0,-3.356242143E0,9.389172381E0,1.935622509E0,1.015714299E1
4.514699333E0,-2.412503291E0,9.653489333E0,2.622024815E0,1.029004580E1
4.524752333E0,-1.305565434E0,1.017795943E1,3.440527418E0,1.082278099E1
4.534805333E0,-9.632469177E-2,1.062632510E1,4.301747439E0,1.146442736E1
4.544858333E0,1.095134667E0,1.074405528E1,4.984658958E0,1.189457308E1
4.554911333E0,2.210776982E0,1.061535806E1,5.359168442E0,1.209520765E1
4.564964333E0,3.244300415E0,1.021284977E1,5.953424478E0,1.225850923E1
4.575017333E0,3.799427760E0,9.011174448E0,5.843678087E0,1.139234347E1
4.585070333E0,2.635765187E0,6.325730731E0,4.720406910E0,8.321320136E0
4.595123333E0,9.982600451E-2,3.435087753E0,4.289615636E0,5.496416597E0
4.605176333E0,-1.926097394E0,1.911151911E0,3.969839013E0,4.808531438E0
4.615229333E0,-4.090250140E0,9.646555120E-1,1.860789843E0,4.596003188E0
4.625282333E0,-5.138062415E0,-4.512647152E-1,4.099050785E0,6.588288287E0
4.635335333E0,-3.837897177E0,-2.304336818E0,4.091454667E0,6.064604208E0
4.645388333E0,-1.873108757E0,-1.924888775E0,-6.314164354E0,6.861661949E0
4.655440333E0,-1.453537704E0,-2.794890144E0,-9.786186045E0,1.028074025E1
4.665493333E0,-1.784828664E0,-6.624519943E0,-8.280947260E0,1.075378842E1
4.675546333E0,2.649548829E-1,-1.539210056E1,-6.619832815E0,1.675736098E1
4.685599333E0,1.936922345E0,-2.615530897E1,-5.635496745E0,2.682556019E1
4.695652333E0,4.447615589E0,-3.343584558E1,-7.067028453E0,3.446273270E1
4.705705333E0,9.291187080E0,-4.046719023E1,-9.995588286E0,4.270633943E1
4.715758333E0,1.333321874E1,-4.518848007E1,-1.114298274E1,4.841424912E1
4.725811333E0,1.393169062E1,-3.836311412E1,-3.892303180E0,4.099964088E1
4.735864333E0,1.296330751E1,-2.213286198E1,1.894638088E1,3.188849744E1
4.745917333E0,1.212927704E1,-1.483755062E1,1.399910785E1,2.373283149E1
4.755970333E0,9.355434532E0,-1.563967284E1,-4.625029467E0,1.880197913E1
4.766023333E0,8.649968548E0,-1.576124931E1,-6.566540122E-2,1.797896682E1
4.776076333E0,6.754238083E0,-1.312847030E1,7.219444900E0,1.643462349E1
4.786129333E0,4.469795540E0,-1.029186436E1,7.898158118E0,1.372160508E1
4.796182333E0,3.616861608E0,-7.870575632E0,4.405885180E0,9.717997370E0
4.806235333E0,3.218295216E0,-5.559775302E0,2.260413119E0,6.810138983E0
4.816288958E0,3.075729866E0,-3.176742563E0,1.417594285E0,4.643423422E0
4.826341958E0,2.730242159E0,-8.118367767E-1,1.008925366E0,3.021792778E0
4.836393958E0,2.046033728E0,1.584346350E0,7.217171502E-1,2.686500143E0
4.846446958E0,1.211652426E0,4.175523010E0,2.165972400E-1,4.353160734E0
4.856499958E0,1.244430748E-1,7.019421592E0,-3.084055424E-1,7.027295322E0
4.866552958E0,-4.422678968E-1,9.588565943E0,-9.846757936E-1,9.649133855E0
4.876605958E0,-1.912518990E-1,1.153958768E1,-2.487226614E0,1.180614066E1
4.886658958E0,-1.026198041E-1,1.307187159E1,-3.340529505E0,1.349234950E1
4.896711958E0,2.677143301E-1,1.322231109E1,-2.814579474E0,1.352120702E1
4.906764958E0,9.201750116E-1,1.320445604E1,-1.779520562E0,1.335556344E1
4.916817958E0,1.348155822E0,1.295139907E1,-1.131847873E0,1.307047595E1
4.926870958E0,1.917764235E0,1.301519687E1,-6.730754057E-1,1.317293436E1
4.936923958E0,2.274710730E0,1.271755137E1,-3.783955443E-1,1.292492186E1
4.946976958E0,2.660712917E0,1.286857560E1,-1.334287469E-1,1.314143958E1
4.957029958E0,2.953054404E0,1.248980232E1,1.306653893E-1,1.283482629E1
4.967082958E0,3.074904824E0,1.235866799E1,3.311126196E-1,1.273975469E1
4.977135958E0,2.663614306E0,1.226009329E1,6.771777391E-2,1.254628687E1
4.987188958E0,1.368676333E0,1.170612808E1,-2.700641799E-1,1.178896281E1
4.997241958E0,-4.157835183E-1,1.105985872E1,-2.086391612E-1,1.106963780E1
5.007293958E0,-1.999161277E0,1.067048561E1,5.278550541E-1,1.086897143E1
5.017346958E0,-3.610925807E0,1.062473817E1,2.331988885E0,1.146132708E1
5.027399958E0,-5.414721669E0,1.087869093E1,4.119683270E0,1.283109182E1
5.037452958E0,-5.649200279E0,1.076377326E1,2.753867834E0,1.246419137E1
5.047505958E0,-5.264298538E0,1.060071429E1,1.092788472E0,1.188621762E1
5.057558958E0,-4.812602883E0,1.049444232E1,-2.647005290E-1,1.154835627E1
5.067611958E0,-4.180800414E0,1.042906577E1,-1.436074995E0,1.132725988E1
5.077664958E0,-3.425558546E0,1.040137453E1,-2.094284366E0,1.114939776E1
5.087717958E0,-2.429523220E0,1.039912803E1,-2.100955455E0,1.088386239E1
5.097770958E0,-1.298948725E0,1.015300469E1,-1.415644239E0,1.033319024E1
5.107823958E0,-4.507636088E-1,9.615332158E0,3.797327660E-1,9.633379329E0
5.117876958E0,6.041563945E-1,8.404707087E0,4.729716262E0,9.663038968E0
5.127929958E0,1.206142010E0,6.034185635E0,8.807441667E0,1.074417068E1
5.137982958E0,-7.669061869E-2,3.498058172E0,9.444082999E0,1.007139494E1
5.148035958E0,-1.147983264E0,1.519921728E0,8.821878442E0,9.025162984E0
5.158088958E0,-1.140770724E0,-1.554102212E-1,2.190613736E0,2.474732050E0
5.168141958E0,-8.313755402E-1,-1.082605546E0,-4.028632182E0,4.253598161E0
5.178193958E0,-1.055597549E0,-3.002917120E0,-6.459966431E0,7.201594525E0
5.188246958E0,-7.014331591E-1,-3.635893418E0,-6.630286467E0,7.594236503E0
5.198299958E0,1.642982814E-1,-2.845032358E0,-5.715835733E0,6.386860040E0
5.208352958E0,1.608091016E0,-5.188684684E0,-5.646738601E0,7.835436318E0
5.218405958E0,4.299394227E0,-1.191685705E1,-6.328074296E0,1.416124278E1
5.228458958E0,7.564320695E0,-2.146983216E1,-5.584593809E0,2.343843699E1
5.238511958E0,1.335584162E1,-3.633776024E1,-7.001250785E0,3.934245591E1
5.248564958E0,1.877583514E1,-4.613192130E1,-4.700705886E0,5.002782010E1
5.258617958E0,1.928699990E1,-4.706633443E1,4.801671513E0,5.109094099E1
5.268670958E0,1.164520944E1,-3.703238139E1,1.210212257E1,4.066287675E1
5.278723958E0,4.533815242E0,-1.864680814E1,4.015390577E0,1.960566999E1
5.288776958E0,2.995250251E0,-1.161926886E1,-1.376083732E-2,1.199913006E1
5.298829958E0,1.291559891E0,-9.327632191E0,-9.050063109E-1,9.460015098E0
5.308882958E0,6.115757802E-1,-9.037800329E0,-2.127529880E0,9.304957985E0
5.318935958E0,1.213707430E0,-9.605145139E0,-2.323737295E0,9.956488029E0
5.328988958E0,2.729273275E0,-8.674909846E0,-1.840293598E0,9.278452133E0
5.339041958E0,3.994666291E0,-6.180441456E0,-1.236750430E0,7.462222658E0
5.349094958E0,4.610891485E0,-3.417969444E0,-4.767281699E-1,5.759349369E0
5.359146958E0,4.794285603E0,-5.110144883E-1,8.248573565E-1,4.891492605E0
5.369199958E0,4.301609445E0,2.295724454E0,2.153177522E0,5.330137712E0
5.379252958E0,3.276052843E0,4.577088731E0,2.283538857E0,6.074274705E0
5.389305958E0,2.394658027E0,6.505081208E0,1.495393828E0,7.091309561E0
5.399358958E0,1.824303071E0,8.315303160E0,9.740560806E-1,8.568613282E0
5.409411958E0,1.355759102E0,1.025334525E1,2.116587986E0,1.055694635E1
5.419464958E0,6.806437493E-1,1.226694388E1,3.837878466E0,1.287130527E1
5.429517958E0,6.927068476E-1,1.384579502E1,4.881151546E0,1.469733047E1
5.439570958E0,1.422166515E0,1.457169995E1,4.229452465E0,1.523959531E1
5.449623958E0,1.912001804E0,1.464027843E1,2.033080391E0,1.490392295E1
5.459676958E0,1.943365976E0,1.426931119E1,-3.885872412E-1,1.440628034E1
5.469729958E0,1.421598458E0,1.390120908E1,-1.534929192E0,1.405775814E1
5.479782958E0,5.331441531E-1,1.323070536E1,-1.940483884E0,1.338287281E1
5.489835958E0,-5.341055815E-1,1.238795318E1,-1.679669999E0,1.251271130E1
5.499888958E0,-1.493800754E0,1.159532568E1,-1.352752172E0,1.176915276E1
5.509941958E0,-2.130860454E0,1.102510404E1,-1.157021306E0,1.128858643E1
5.519994958E0,-2.471963919E0,1.065669203E1,-8.637004832E-1,1.097368075E1
5.530046958E0,-2.771477308E0,1.028818530E1,-5.590113580E-1,1.066959872E1
5.540099958E0,-2.957339829E0,9.737124982E0,-3.787441114E-1,1.018336432E1
5.550152958E0,-2.881397069E0,9.223773361E0,-1.680548251E-1,9.664816942E0
5.560205958E0,-2.934981830E0,8.993030537E0,2.728041121E-1,9.463780358E0
5.570258958E0,-3.349327226E0,8.852638305E0,9.673235965E-1,9.514352987E0
5.580311958E0,-3.678728950E0,8.755036581E0,1.493684102E0,9.613261903E0
5.590364958E0,-3.727864273E0,8.621111954E0,1.678143876E0,9.541315959E0
5.600417958E0,-3.595040091E0,8.381028203E0,2.056368681E0,9.348507857E0
5.610470958E0,-2.876569608E0,8.029312919E0,2.951142365E0,9.025173678E0
5.620523958E0,-1.543166896E0,7.590243157E0,4.928466046E0,9.180573664E0
5.630576958E0,-6.543575183E-1,6.938790827E0,7.328248719E0,1.011327005E1
5.640629958E0,-1.252258123E0,6.261342362E0,7.515858972E0,9.862083688E0
5.650682958E0,-2.885428432E0,5.823930870E0,4.809561746E0,8.085527330E0
5.660735958E0,-4.326382051E0,4.927149838E0,5.090653190E0,8.301152756E0
5.670788958E0,-4.923127538E0,2.074948794E0,1.267964387E1,1.375921386E1
5.680841958E0,-4.692399332E0,3.115396500E-1,1.170958495E1,1.261863892E1
5.690894958E0,-3.162225388E0,1.098905829E0,1.130316414E0,3.533394773E0
5.700946958E0,-1.433109872E0,-3.699860787E-1,-5.008934843E0,5.223037609E0
5.710999958E0,6.725101992E-1,-5.662052459E0,-5.706579591E0,8.066979524E0
5.721052958E0,2.706080879E0,-1.306948943E1,-5.375849964E0,1.438868273E1
5.731105958E0,4.259487273E0,-2.019341539E1,-6.044811196E0,2.150481340E1
5.741158958E0,6.679116565E0,-2.604855051E1,-9.020615947E0,2.836386951E1
5.751211958E0,9.279663388E0,-2.880907949E1,-1.121140568E1,3.227647489E1
5.761264958E0,9.912486488E0,-2.738132742E1,-1.018817569E1,3.085114915E1
5.771317958E0,1.095990875E1,-2.122953966E1,-1.034877765E1,2.603670780E1
5.781370958E0,1.154838189E1,-1.482114334E1,-9.708353757E0,2.114907910E1
5.791423958E0,1.216664192E1,-1.391691354E1,-6.028621425E0,1.944355765E1
5.801476958E0,1.468293504E1,-1.626423850E1,1.206004601E0,2.194466865E1
5.811529958E0,1.870837581E1,-1.763659521E1,1.824226735E1,3.152511910E1
5.821582292E0,1.270719595E1,-1.674881363E1,1.422073252E1,2.538158428E1
5.831635292E0,5.109230379E0,-1.610952585E1,7.358931398E-1,1.691634112E1
5.841688292E0,1.607724103E-1,-1.586468188E1,3.459940174E0,1.623838554E1
5.851741292E0,-2.930663661E0,-1.376261721E1,9.289860932E0,1.686119622E1
5.861794292E0,-2.505139851E0,-9.831897823E0,8.494418578E0,1.323242561E1
5.871847292E0,-1.467465480E0,-6.476084865E0,4.507907399E0,8.025855670E0
5.881899292E0,-1.476092754E0,-4.063123153E0,1.890352196E0,4.718183019E0
5.891952292E0,-1.768297124E0,-1.915548432E0,3.762355828E-1,2.633961603E0
5.902005292E0,-2.252883659E0,2.645368069E-1,-8.266278934E-1,2.414286267E0
5.912058292E0,-2.742220765E0,2.335776712E0,-1.544227434E0,3.919217516E0
5.922111292E0,-2.923531228E0,4.538653813E0,-1.803457893E0,5.692000847E0
5.932164292E0,-3.105842734E0,6.762890793E0,-1.948859435E0,7.692919086E0
5.942217292E0,-2.943363229E0,8.607319542E0,-1.602353436E0,9.236713340E0
5.952270292E0,-2.281075571E0,1.028823324E1,-8.918103147E-1,1.057574464E1
5.962323292E0,-1.592571921E0,1.144853484E1,1.871413247E-1,1.156028793E1
5.972376292E0,-8.365655288E-1,1.193941327E1,1.251920446E0,1.203398254E1
5.982429292E0,-1.175200445E-1,1.205368190E1,1.342076325E0,1.212873559E1
5.992482292E0,5.050875313E-1,1.204595889E1,1.050329500E0,1.210220770E1
6.002535292E0,1.171670116E0,1.202171634E1,2.798091312E-1,1.208191904E1
6.012588292E0,1.748714214E0,1.188647492E1,-8.959688544E-2,1.201475405E1
6.022641292E0,2.277913835E0,1.191023800E1,-4.026258212E-1,1.213279721E1
6.032694292E0,2.598726292E0,1.190270211E1,-8.915161997E-1,1.221566605E1
6.042746292E0,2.761391738E0,1.200252811E1,-9.784888548E-1,1.235489401E1
6.052799292E0,2.713216236E0,1.210200095E1,-6.983481681E-1,1.242206341E1
6.062852292E0,2.492721827E0,1.229776573E1,-3.175523418E-1,1.255187410E1
6.072905292E0,1.994670177E0,1.236112616E1,1.888428462E-1,1.252245226E1
6.082958292E0,1.269624353E0,1.208240108E1,6.261619520E-1,1.216504996E1
6.093011292E0,1.785302581E-1,1.144519257E1,1.059100909E0,1.149547740E1
6.103064292E0,-9.823716983E-1,1.073926056E1,1.495706654E0,1.088732795E1
6.113117292E0,-2.016722366E0,1.030945162E1,1.809493389E0,1.065956041E1
6.123170292E0,-2.756999018E0,1.009317832E1,1.835280780E0,1.062269023E1
6.133223292E0,-2.913760530E0,1.006419718E1,1.422874905E0,1.057367666E1
6.143276292E0,-2.788606727E0,1.006927256E1,8.828278220E-1,1.048551202E1
6.153329292E0,-2.808127071E0,9.850358652E0,6.388159114E-1,1.026271061E1
6.163382292E0,-2.556963139E0,9.172298568E0,8.368704611E-1,9.558738080E0
6.173435292E0,-2.092458866E0,8.306599579E0,7.339705753E-1,8.597481811E0
6.183488292E0,-2.004159770E0,7.844700533E0,-7.333462754E-2,8.096997024E0
6.193541292E0,-1.904739562E0,7.343778924E0,9.262363815E-1,7.643103788E0
6.203593292E0,-1.421392344E0,6.407561345E0,3.300282535E0,7.346363958E0
6.213646292E0,-7.385702875E-1,5.368497675E0,3.446163549E0,6.422016549E0
6.223699292E0,-4.502619177E-2,4.243882808E0,3.128152785E0,5.272372189E0
6.233752292E0,2.351375914E-1,2.510498532E0,2.443387114E0,3.511129898E0
6.243805292E0,5.381458613E-1,6.906397837E-1,-1.843568623E-1,8.947467416E-1
6.253858292E0,6.093181702E-1,-2.463525510E-1,-3.508682563E0,3.569707487E0
6.263911292E0,4.687259629E-1,-1.246357990E0,-4.608860162E0,4.797364303E0
6.273964292E0,9.092288777E-1,-7.434288560E0,-4.383354689E0,8.678083997E0
6.284017292E0,3.463135092E0,-2.074823663E1,-3.059564946E0,2.125661228E1
6.294070292E0,6.277881796E0,-3.646075291E1,-3.770749506E0,3.718893457E1
6.304123292E0,9.151182518E0,-5.061380274E1,-7.743149015E0,5.201401279E1
6.314176292E0,9.641707778E0,-5.368884410E1,-5.286445452E0,5.480329383E1
6.324229292E0,7.282886020E0,-4.057151859E1,-3.344283417E0,4.135544440E1
6.334282292E0,3.663929062E0,-2.307866080E1,-2.648288169E0,2.351727856E1
6.344335292E0,2.349026502E0,-1.503059528E1,-9.961060039E-1,1.524562059E1
6.354388292E0,3.385241701E0,-1.147734173E1,1.359998041E0,1.204320677E1
6.364441292E0,7.108026205E0,-1.113108014E1,5.414152150E0,1.427368296E1
6.374494292E0,1.020760716E1,-1.166581854E1,8.231923034E0,1.755138521E1
6.384546292E0,8.302689546E0,-9.844367595E0,6.842517006E0,1.458308150E1
6.394599292E0,4.734238791E0,-8.312255006E0,5.043527555E0,1.081405430E1
6.404652292E0,1.919462120E0,-7.606889010E0,4.865960480E0,9.231828997E0
6.414705292E0,1.608818994E-1,-6.907897063E0,4.677930397E0,8.344336859E0
6.424758292E0,-5.388903581E-1,-5.286440189E0,3.785812519E0,6.524509876E0
6.434811292E0,-1.169913539E0,-2.932765151E0,2.624039766E0,4.105532098E0
6.444864292E0,-1.801789536E0,-5.359031618E-2,1.478309433E0,2.331247785E0
6.454917292E0,-2.370837348E0,3.049447508E0,4.802481937E-1,3.892382068E0
6.464970292E0,-2.651498290E0,6.043111410E0,-5.825943116E-1,6.624881496E0
6.475023292E0,-2.578547843E0,8.799809296E0,-1.310000839E0,9.262918267E0
6.485076292E0,-1.988854975E0,1.081376929E1,-1.448293337E0,1.109011740E1
6.495129292E0,-8.090024120E-1,1.233677367E1,-1.401248978E0,1.244242614E1
6.505182292E0,2.050678098E-1,1.262064664E1,-8.369248402E-1,1.265002836E1
6.515235292E0,1.058141965E0,1.267513567E1,-1.106444864E-1,1.271970797E1
6.525288292E0,1.931399942E0,1.266905457E1,-3.417076282E-3,1.281543058E1
6.535340292E0,2.778307149E0,1.253757407E1,1.486831823E-2,1.284172790E1
6.545393292E0,4.041117741E0,1.276801284E1,-9.442586696E-1,1.342551336E1
6.555446292E0,5.076958426E0,1.285151927E1,-1.651194059E0,1.391630325E1
6.565499292E0,5.796733131E0,1.289681063E1,-2.040785267E0,1.428616967E1
6.575552292E0,6.108637648E0,1.279598826E1,-2.296659424E0,1.436410157E1
6.585605292E0,5.713068831E0,1.270988918E1,-2.423574994E0,1.414405013E1
6.595658292E0,4.987516492E0,1.254530526E1,-2.190916037E0,1.367699229E1
6.605711292E0,3.821286114E0,1.259149476E1,-1.212971558E0,1.321435840E1
6.615764292E0,2.015101226E0,1.264835893E1,-3.850861112E-2,1.280793112E1
6.625817292E0,1.559484574E-1,1.242977715E1,7.913329303E-1,1.245591777E1
6.635870292E0,-1.508614237E0,1.213217609E1,1.751542804E0,1.235044597E1
6.645923292E0,-2.869174634E0,1.183711389E1,2.927116156E0,1.252666904E1
6.655976292E0,-3.936887322E0,1.151120062E1,3.997617381E0,1.280577081E1
6.666029292E0,-3.982817493E0,1.079395542E1,4.185592500E0,1.224301814E1
6.676082292E0,-2.973858798E0,9.825688080E0,3.601913493E0,1.087941925E1
6.686135292E0,-1.662556076E0,8.988063328E0,3.028361279E0,9.629140519E0
6.696188292E0,-7.156489098E-1,8.564851214E0,2.921297007E0,9.077599126E0
6.706240292E0,-4.622454938E-1,8.145136321E0,2.325141796E0,8.483112692E0
6.716293292E0,-9.756886232E-1,7.744132517E0,2.830304537E-1,7.810484170E0
6.726346292E0,-2.234403534E0,7.108623206E0,-1.517289312E0,7.604423048E0
6.736399292E0,-3.833071762E0,6.350786051E0,-3.060499331E0,8.024436351E0
6.746452292E0,-4.742361158E0,6.224759257E0,-3.071297969E0,8.406574117E0
6.756505292E0,-5.204261667E0,5.729003078E0,2.110705687E0,8.022524183E0
6.766558292E0,-5.565804951E0,2.525389636E0,1.456057036E1,1.579132631E1
6.776611292E0,-3.979390148E0,4.836834329E-1,1.281633423E1,1.342862312E1
6.786664292E0,-2.638523319E0,2.222308568E0,-2.573450240E0,4.303847908E0
6.796717292E0,-2.767259127E0,2.746554721E0,-6.733740084E0,7.781037298E0
6.806770292E0,-2.119247299E0,1.301559214E0,-5.676957012E0,6.197830783E0
6.816823542E0,2.881253520E-1,-1.601126690E0,-4.647827761E0,4.924319831E0
6.826876542E0,3.400628649E0,-9.368338167E0,-4.078197860E0,1.076855297E1
6.836929542E0,7.006109821E0,-2.472127934E1,-3.285199057E0,2.590404910E1
6.846982542E0,1.088138532E1,-4.185565135E1,-4.444914760E0,4.347478998E1
6.857035542E0,1.406180052E1,-5.308898526E1,-6.353266439E0,5.528597096E1
6.867087542E0,1.494946048E1,-5.577340922E1,-6.034661014E0,5.805666782E1
6.877140542E0,1.066415658E1,-4.296193520E1,-5.673621175E0,4.462781743E1
6.887193542E0,4.120296935E0,-2.301347604E1,-3.685317008E0,2.366809008E1
6.897246542E0,1.837256846E0,-1.297002245E1,-1.176436985E0,1.315222411E1
6.907299542E0,2.024593450E0,-7.237251425E0,2.448521554E0,7.903925900E0
6.917352542E0,5.727406204E0,-5.424366066E0,6.067089672E0,9.951708704E0
6.927405542E0,9.853598009E0,-8.002063140E0,6.116805038E0,1.409048303E1
6.937458542E0,8.546595622E0,-1.038085899E1,4.622654328E0,1.421884183E1
6.947511542E0,4.128100629E0,-1.010888628E1,4.990721351E0,1.200575263E1
6.957564542E0,9.806736669E-1,-8.267199286E0,5.858514812E0,1.017990671E1
6.967617542E0,-3.799003252E-1,-6.230455030E0,5.532524353E0,8.340966362E0
6.977670542E0,-1.202691860E0,-4.776349561E0,4.562521563E0,6.713909878E0
6.987723542E0,-1.791942240E0,-3.073799407E0,3.311548365E0,4.860622632E0
6.997776542E0,-2.295221447E0,-1.098943836E0,1.989533837E0,3.230164692E0
7.007829542E0,-2.432559240E0,1.355811435E0,1.700831072E0,3.263187926E0
7.017882542E0,-2.495884001E0,3.792732698E0,1.436495994E0,4.762119172E0
7.027934542E0,-2.737037208E0,6.300637406E0,8.597816062E-1,6.923050542E0
7.037987542E0,-2.951782635E0,8.502236890E0,3.119524634E-1,9.005463186E0
7.048040542E0,-2.902175442E0,1.051587003E1,1.064801268E-1,1.090951340E1
7.058093542E0,-2.534782019E0,1.188894946E1,-1.681975154E-1,1.215732411E1
7.068146542E0,-1.878347862E0,1.214633337E1,-5.181995469E-1,1.230163142E1
7.078199542E0,-6.814216483E-1,1.238657207E1,-8.179424393E-1,1.243223765E1
7.088252542E0,6.184265243E-1,1.220511543E1,-1.029743208E0,1.226408028E1
7.098305542E0,1.662244419E0,1.228357337E1,-1.651623829E0,1.250508266E1
7.108358542E0,2.584153569E0,1.235660977E1,-2.298819970E0,1.283153256E1
7.118411542E0,4.028088976E0,1.270512721E1,-2.617779152E0,1.358302344E1
7.128464542E0,5.080096042E0,1.299973917E1,-3.213996928E0,1.432237308E1
7.138517542E0,5.515000833E0,1.284053118E1,-3.467399467E0,1.439851847E1
7.148570542E0,6.041293511E0,1.289122069E1,-3.347480675E0,1.462485641E1
7.158623542E0,5.862333629E0,1.277599195E1,-3.122129568E0,1.439932703E1
7.168676542E0,5.151497562E0,1.237514544E1,-2.728209082E0,1.367937413E1
7.178728542E0,4.004951543E0,1.194295785E1,-1.921145387E0,1.274223994E1
7.188781542E0,2.393605236E0,1.160435261E1,-6.291264904E-1,1.186533378E1
7.198834542E0,3.936617473E-1,1.154776092E1,1.018022465E0,1.159922935E1
7.208887542E0,-1.776646509E0,1.167691539E1,2.604388443E0,1.209502645E1
7.218940542E0,-3.709450221E0,1.187372799E1,3.542987593E0,1.293438048E1
7.228993542E0,-5.041496817E0,1.195960721E1,3.784902107E0,1.351940749E1
7.239046542E0,-5.598103216E0,1.162713453E1,3.631657110E0,1.340589237E1
7.249099542E0,-5.107395523E0,1.079133119E1,3.092632120E0,1.233299198E1
7.259152542E0,-3.912677802E0,9.467130969E0,2.573047952E0,1.056201648E1
7.269205542E0,-2.958459278E0,8.232560381E0,2.188254384E0,9.017537855E0
7.279258542E0,-2.374828219E0,7.407568538E0,1.758746574E0,7.975278693E0
7.289311542E0,-2.505636572E0,6.914558796E0,1.218085533E0,7.454734760E0
7.299364542E0,-3.128846557E0,6.174712939E0,2.113270860E0,7.237587608E0
7.309417542E0,-4.120213612E0,5.176438860E0,4.458169813E0,7.977904334E0
7.319470542E0,-4.493884022E0,2.987438371E0,1.088559649E1,1.214973220E1
7.329523542E0,-3.690069332E0,8.305589765E-1,1.170292614E1,1.229898045E1
7.339575542E0,-3.086849223E0,1.359996872E0,-6.991289176E-2,3.373887584E0
7.349628542E0,-3.370102968E0,2.809645593E0,-6.230910528E0,7.620757730E0
7.359681542E0,-3.187032493E0,2.980992985E0,-6.205227218E0,7.586062227E0
7.369734542E0,-1.562635639E0,8.941053468E-1,-5.446059237E0,5.735923266E0
7.379787542E0,1.164736707E0,-7.027842168E0,-4.591667594E0,8.475292822E0
7.389840542E0,5.064488654E0,-2.305110404E1,-3.292903349E0,2.382951228E1
7.399893542E0,9.867033741E0,-4.294440290E1,-6.393294139E0,4.452476059E1
7.409946542E0,1.622296768E1,-6.041511612E1,-1.109434326E1,6.353153066E1
7.419999542E0,1.962945612E1,-6.256556299E1,-7.595333158E0,6.601101655E1
7.430052542E0,1.687599759E1,-4.538596627E1,-7.891995737E0,4.906086858E1
7.440105542E0,8.849189032E0,-2.444337521E1,-5.802520705E0,2.663561497E1
7.450158542E0,4.116414969E0,-1.311808681E1,4.358140326E-1,1.375569001E1
7.460211542E0,1.167688966E-1,-5.236900240E0,1.702166226E1,1.780942854E1
7.470264542E0,1.377435900E0,-3.924659917E0,1.720291425E1,1.769860287E1
7.480317542E0,4.488377699E0,-7.933675275E0,4.366041083E0,1.010698038E1
7.490370542E0,1.099468770E0,-1.075410313E1,4.021574593E0,1.153397711E1
7.500423542E0,-1.788375877E0,-1.080635385E1,4.071025665E0,1.168541064E1
7.510476542E0,-1.778975894E0,-8.818184756E0,2.823109392E0,9.428418969E0
7.520528542E0,-1.344175622E0,-6.225625815E0,1.949892054E0,6.660878614E0
7.530581542E0,-1.295041615E0,-3.994616590E0,1.361007271E0,4.414344263E0
7.540634542E0,-1.165851040E0,-1.674343770E0,8.301841700E-1,2.202689598E0
7.550687542E0,-9.817271890E-1,7.124709481E-1,3.625098288E-1,1.266023894E0
7.560740542E0,-8.646118449E-1,3.369056316E0,7.906138142E-2,3.479129892E0
7.570793542E0,-8.166452345E-1,6.122984961E0,-1.669953096E-1,6.179461279E0
7.580846542E0,-8.135985428E-1,8.468323624E0,-3.035289645E-1,8.512730315E0
7.590899542E0,-6.497621915E-1,1.069904809E1,-4.248692143E-1,1.072717739E1
7.600952542E0,-1.046830307E-1,1.236629743E1,-5.940771103E-1,1.238100151E1
7.611005542E0,6.625956604E-1,1.313123252E1,-3.642908907E-1,1.315298477E1
7.621058542E0,2.049912770E0,1.366855656E1,-1.128547704E-1,1.382187820E1
7.631111542E0,3.332184944E0,1.383810710E1,3.924043036E-1,1.423905354E1
7.641164542E0,4.688634310E0,1.412496215E1,-2.941313195E-1,1.488570994E1
7.651217542E0,5.651290074E0,1.411832906E1,-1.400577718E0,1.527173576E1
7.661270542E0,6.166782360E0,1.419775998E1,-2.337331486E0,1.565467060E1
7.671322542E0,6.215804831E0,1.392076568E1,-3.160842229E0,1.556967792E1
7.681375542E0,6.091088984E0,1.356915038E1,-3.594087580E0,1.530165588E1
7.691428542E0,5.542538880E0,1.319430059E1,-3.550859699E0,1.474509783E1
7.701481542E0,4.668062051E0,1.278358281E1,-3.030791967E0,1.394261427E1
7.711534542E0,3.729417585E0,1.248488014E1,-2.120466444E0,1.320140771E1
7.721587542E0,2.153406295E0,1.236372232E1,-3.591254604E-1,1.255498942E1
7.731640542E0,-2.758672491E-1,1.245130542E1,2.025157413E0,1.261793850E1
7.741693542E0,-2.644813169E0,1.218776791E1,3.248580869E0,1.288759097E1
7.751746542E0,-4.109671375E0,1.143503595E1,2.926637853E0,1.249858613E1
7.761799542E0,-5.003437876E0,1.067081072E1,2.413218405E0,1.203013778E1
7.771852542E0,-4.961923229E0,1.003641472E1,1.510328786E0,1.129740658E1
7.781905542E0,-4.584772557E0,9.545210593E0,6.297135508E-1,1.060790855E1
7.791958542E0,-4.461447470E0,9.063346229E0,3.760040331E-1,1.010891376E1
7.802011542E0,-4.298226246E0,8.660056164E0,6.709679961E-3,9.668059094E0
7.812064542E0,-4.318247404E0,8.463389744E0,-7.297705203E-1,9.529364701E0
7.822117083E0,-4.612832760E0,7.961900370E0,7.518285567E-1,9.232298183E0
7.832170083E0,-5.098881977E0,6.548263480E0,6.179370246E0,1.034712369E1
7.842222083E0,-4.849617512E0,4.774350983E0,8.624082339E0,1.098580964E1
7.852275083E0,-4.036614216E0,4.175846361E0,6.891219050E0,9.012260935E0
7.862328083E0,-3.533321268E0,4.367306421E0,2.992894408E0,6.365150548E0
7.872381083E0,-3.264440565E0,4.979697011E0,-2.319514436E0,6.390156628E0
7.882434083E0,-3.301697561E0,4.905967714E0,-4.136399875E0,7.216614852E0
7.892487083E0,-2.233282915E0,3.054655623E0,-4.795447152E0,6.108583056E0
7.902540083E0,7.021769249E-1,-3.345117230E0,-3.488305017E0,4.883762239E0
7.912593083E0,4.914663693E0,-1.739828492E1,-2.452633317E0,1.824471561E1
7.922646083E0,7.909746130E0,-3.477783537E1,-2.538131889E0,3.575617472E1
7.932699083E0,1.142988456E1,-5.192387375E1,-5.990685275E0,5.350345069E1
7.942752083E0,1.321960032E1,-5.941902656E1,-5.780172647E0,6.114563718E1
7.952805083E0,1.188787123E1,-4.832801388E1,-5.265938097E0,5.004646353E1
7.962858083E0,6.787812796E0,-2.711851613E1,-4.830426950E0,2.836937335E1
7.972911083E0,3.158760328E0,-1.495938555E1,-2.650368608E0,1.551726253E1
7.982964083E0,1.816643657E0,-8.676973329E0,-7.696736741E-1,8.898452556E0
7.993017083E0,2.868192009E0,-5.953394072E0,2.082382944E0,6.928617835E0
8.003069083E0,8.168349767E0,-8.546315541E0,5.814516853E0,1.317459880E1
8.013122083E0,1.065703818E1,-1.203831775E1,6.324951882E0,1.727711126E1
8.023175083E0,6.514841380E0,-1.125000783E1,4.137303854E0,1.364269466E1
8.033228083E0,3.218566527E0,-9.021343340E0,3.811065474E0,1.030863843E1
8.043281083E0,1.338035168E0,-7.133089710E0,4.952115694E0,8.786054677E0
8.053334083E0,1.278052238E-1,-5.685909684E0,5.477449429E0,7.896097476E0
8.063387083E0,-1.202677242E-1,-4.497484737E0,4.630746875E0,6.456442511E0
8.073440083E0,1.147104574E-1,-2.910825813E0,3.238285092E0,4.355749733E0
8.083493083E0,8.087722510E-2,-9.546187663E-1,2.130465767E0,2.335962864E0
8.093546083E0,-3.855433269E-1,1.380209527E0,1.312219273E0,1.943075247E0
8.103599083E0,-8.555360891E-1,4.080500493E0,5.301272821E-1,4.202792073E0
8.113652083E0,-1.254640571E0,6.687905515E0,-1.951707029E-1,6.807370619E0
8.123705083E0,-1.869325900E0,9.076115379E0,-9.527195907E-1,9.315466940E0
8.133758083E0,-1.835392315E0,1.098488338E1,-2.083419070E0,1.133035581E1
8.143811083E0,-1.301366110E0,1.188457340E1,-2.987544791E0,1.232323264E1
8.153864083E0,-4.044679865E-1,1.235550464E1,-3.021736969E0,1.272607495E1
8.163917083E0,3.794346676E-1,1.205671777E1,-2.089356333E0,1.224229651E1
8.173969083E0,1.209678406E0,1.222382184E1,-1.282316612E0,1.235028251E1
8.184022083E0,1.817071527E0,1.246583225E1,-1.295904372E0,1.266404717E1
8.194075083E0,2.436865276E0,1.286460300E1,-1.038946141E0,1.313452442E1
8.204128083E0,3.344564376E0,1.303548788E1,-4.116480750E-1,1.346400792E1
8.214181083E0,4.677914025E0,1.347302801E1,5.696320944E-3,1.426202635E1
8.224234083E0,5.627120608E0,1.380884530E1,-2.431863203E-1,1.491334417E1
8.234287083E0,6.168227207E0,1.365388122E1,-8.715269083E-1,1.500783323E1
8.244340083E0,6.295747379E0,1.366971197E1,-1.321823325E0,1.510776877E1
8.254393083E0,5.831762631E0,1.360285958E1,-1.280089992E0,1.485549981E1
8.264446083E0,4.787644628E0,1.357824748E1,-5.928884079E-1,1.440978357E1
8.274499083E0,3.310557262E0,1.368293837E1,3.341286135E-1,1.408169854E1
8.284552083E0,1.664759599E0,1.363341947E1,8.388854116E-1,1.376027906E1
8.294605083E0,1.515949130E-1,1.301263228E1,7.366965473E-1,1.303435083E1
8.304658083E0,-1.440627929E0,1.211874269E1,4.761469567E-1,1.221335536E1
8.314711083E0,-2.932865723E0,1.113166136E1,2.518085879E-1,1.151429518E1
8.324763083E0,-3.833616723E0,9.741632016E0,9.433656536E-2,1.046923640E1
8.334816083E0,-3.425365003E0,8.495570480E0,-5.244823802E-1,9.175125337E0
8.344869083E0,-3.358524896E0,8.191849726E0,-9.680937479E-1,8.906362721E0
8.354922083E0,-3.892423632E0,8.025620402E0,5.226200420E-1,8.935025253E0
8.364975083E0,-5.179146706E0,7.175756258E0,4.930286869E0,1.013028959E1
8.375028083E0,-5.773382860E0,5.827188939E0,6.446922462E0,1.043316298E1
8.385081083E0,-5.124237843E0,4.482442775E0,6.542342005E0,9.442051981E0
8.395134083E0,-4.090226752E0,3.414969823E0,7.030337175E0,8.821429281E0
8.405187083E0,-3.475663044E0,4.334019392E0,1.261152030E0,5.696881790E0
8.415240083E0,-3.618252076E0,5.433070816E0,-4.020133254E0,7.666255798E0
8.425293083E0,-3.634259706E0,4.877712799E0,-3.666421146E0,7.102293276E0
8.435346083E0,-2.769993577E0,3.366719769E0,-4.268314229E0,6.101325494E0
8.445399083E0,-9.573385987E-1,-1.705770215E0,-3.642466565E0,4.134454244E0
8.455452083E0,3.367997970E0,-1.518810056E1,-2.783103327E0,1.580403344E1
8.465505083E0,7.543343809E0,-3.359881216E1,-3.725049423E0,3.463608245E1
8.475558083E0,1.237586816E1,-4.832896347E1,-5.831445127E0,5.022804570E1
8.485610083E0,1.545709704E1,-5.514587668E1,-5.512225744E0,5.753585140E1
8.495663083E0,1.712646424E1,-5.001683945E1,-7.224718503E0,5.335912821E1
8.505716083E0,1.165473105E1,-3.008991910E1,-5.371344100E0,3.271218924E1
8.515769083E0,5.220957806E0,-1.582197031E1,7.283081317E-1,1.667703743E1
8.525822083E0,1.048563349E0,-7.229038426E0,1.343858674E1,1.529555802E1
8.535875083E0,1.692910434E0,-3.695459003E0,1.583313966E1,1.634657990E1
8.545928083E0,4.897693319E0,-5.578629064E0,3.930980172E0,8.400065904E0
8.555981083E0,3.491144132E0,-9.198072510E0,5.653310287E-1,9.854553487E0
8.566034083E0,2.072090382E0,-1.202575793E1,1.187005827E0,1.226056260E1
8.576087083E0,2.865213438E0,-1.248943044E1,1.138111410E0,1.286431570E1
8.586140083E0,3.867305456E0,-1.018965971E1,5.293998885E-1,1.091171301E1
8.596193083E0,4.095127303E0,-7.030806121E0,1.922014686E-1,8.138749520E0
8.606246083E0,3.372621948E0,-4.646836073E0,7.809167004E-1,5.794609149E0
8.616299083E0,2.261341949E0,-2.593133723E0,1.914261460E0,3.937309596E0
8.626352083E0,1.132044047E0,-7.381326234E-1,2.882327653E0,3.183422089E0
8.636405083E0,1.035550663E-1,7.815710038E-1,3.150603755E0,3.247750130E0
8.646457083E0,-5.811588567E-1,2.365998631E0,2.580703712E0,3.549045898E0
8.656510083E0,-1.082612270E0,3.995880758E0,1.852390902E0,4.535467386E0
8.666563083E0,-1.605803293E0,5.604818158E0,1.157838746E0,5.944172050E0
8.676616083E0,-2.044007960E0,7.183884473E0,5.776300621E-1,7.491316383E0
8.686669083E0,-2.364102525E0,8.809730267E0,1.380983881E-1,9.122466733E0
8.696722083E0,-2.678359230E0,1.035280638E1,-3.748766899E-1,1.070022153E1
8.706775083E0,-2.617799617E0,1.125512415E1,-1.122403450E0,1.160993040E1
8.716828083E0,-2.346162244E0,1.167684756E1,-1.579625309E0,1.201451049E1
8.726881083E0,-1.827247729E0,1.176731334E1,-1.248815575E0,1.197363929E1
8.736934083E0,-1.415261246E0,1.146050643E1,-3.709567165E-1,1.155351811E1
8.746987083E0,-9.463975080E-1,1.162179485E1,1.020912158E-1,1.166071209E1
8.757040083E0,-3.700047167E-1,1.172374223E1,4.341218483E-1,1.173761037E1
8.767093083E0,2.248600866E-1,1.190274421E1,5.186690784E-1,1.191616127E1
8.777146083E0,7.512859350E-1,1.201356181E1,4.190342778E-1,1.204432180E1
8.787199083E0,1.397648117E0,1.215649466E1,3.612339664E-1,1.224190641E1
8.797251083E0,2.318480794E0,1.255062155E1,4.347868960E-2,1.276304607E1
8.807304083E0,3.574113199E0,1.276798361E1,-7.272573870E-1,1.327872712E1
8.817358542E0,4.297894709E0,1.257087748E1,-1.906377659E0,1.342136860E1
8.827411542E0,4.265119603E0,1.233852550E1,-2.664089100E0,1.332395690E1
8.837464542E0,3.595733571E0,1.194545461E1,-2.894836017E0,1.280637581E1
8.847517542E0,2.805612184E0,1.137986748E1,-2.667406810E0,1.202031208E1
8.857570542E0,2.096088232E0,1.101525850E1,-2.125624273E0,1.141261513E1
8.867623542E0,1.065119448E0,1.082151919E1,-1.250533487E0,1.094548268E1
8.877676542E0,-5.029048388E-1,1.068642746E1,-9.761985004E-2,1.069869968E1
8.887729542E0,-2.789600753E0,1.044365808E1,1.512387006E0,1.091508960E1
8.897782542E0,-5.058909241E0,9.869068573E0,3.871243848E0,1.174638694E1
8.907835542E0,-6.580550051E0,8.287760435E0,8.763240809E0,1.373990544E1
8.917888542E0,-5.322714561E0,6.051046082E0,9.654581008E0,1.257606391E1
8.927941542E0,-2.434059636E0,5.331048598E0,2.397463667E0,6.331868405E0
8.937994542E0,-1.570066280E0,4.832930728E0,4.509238956E-1,5.101535054E0
8.948046542E0,-1.710093354E0,3.809676760E0,-3.371218032E-1,4.189475791E0
8.958099542E0,-1.528132681E0,3.201814254E0,-1.855510976E0,4.003713900E0
8.968152542E0,-6.576205570E-1,2.200242346E0,-2.701879070E0,3.545938759E0
8.978205542E0,6.327526411E-1,9.033351767E-1,-2.689502853E0,2.906856712E0
8.988258542E0,1.407150865E0,-2.526525750E0,-1.753672945E0,3.382125770E0
8.998311542E0,2.863943715E0,-1.304940776E1,-1.020545538E0,1.339890778E1
9.008364542E0,5.249848899E0,-2.786600079E1,-4.116790652E-2,2.835624461E1
9.018417542E0,6.342549078E0,-4.020892573E1,-2.006449247E0,4.075550854E1
9.028470542E0,6.053151079E0,-4.677981151E1,-3.948969716E0,4.733482613E1
9.038523542E0,4.520590010E0,-4.400685134E1,-5.698755432E0,4.460397418E1
9.048576542E0,1.381150052E0,-2.933482136E1,-6.359922910E0,3.004809377E1
9.058629542E0,-1.118171528E0,-1.694515261E1,-5.670481220E0,1.790371084E1
9.068682542E0,-1.581213412E0,-1.083066190E1,-5.064947076E0,1.206056225E1
9.078735542E0,4.670521975E-2,-8.391411104E0,-4.423685274E0,9.486145323E0
9.088788542E0,4.296839578E0,-1.109013560E1,-3.180178971E0,1.231127436E1
9.098840542E0,9.338707986E0,-1.418618249E1,1.635033524E-1,1.698487486E1
9.108893542E0,1.562310300E1,-1.354192926E1,9.568467894E0,2.278202741E1
9.118946542E0,1.324520879E1,-9.645875089E0,1.081663326E1,1.963359410E1
9.128999542E0,6.597546152E0,-6.770519655E0,5.022158321E0,1.070465440E1
9.139052542E0,4.012592100E0,-5.253864182E0,6.513068504E0,9.280304173E0
9.149105542E0,1.309865476E0,-4.092418288E0,8.523307332E0,9.545176943E0
9.159158542E0,8.815480126E-1,-2.844289176E0,6.033544196E0,6.728355177E0
9.169211542E0,1.161653470E0,-1.423180715E0,3.321145985E0,3.795377819E0
9.179264542E0,8.448587810E-1,1.395110571E-1,1.919549682E0,2.101885029E0
9.189317542E0,3.586547595E-1,1.920105752E0,8.346233030E-1,2.124155219E0
9.199370542E0,-1.814464107E-3,3.866272545E0,2.550442178E-2,3.866357091E0
9.209423542E0,-2.615788467E-1,5.747590207E0,-3.959068223E-1,5.767144779E0
9.219476542E0,-5.263068576E-1,7.624071638E0,-9.727463043E-1,7.703875818E0
9.229529542E0,-5.024964838E-1,9.627483841E0,-1.793909390E0,9.806072543E0
9.239581542E0,-2.376455352E-1,1.124152703E1,-2.827589529E0,1.159412213E1
9.249634542E0,1.486209460E-1,1.185422168E1,-3.197300788E0,1.227873740E1
9.259687542E0,1.079057309E0,1.231583596E1,-2.865113450E0,1.269066804E1
9.269740542E0,2.140304000E0,1.239619659E1,-2.075568599E0,1.274968925E1
9.279793542E0,3.196167890E0,1.274417024E1,-1.194642291E0,1.319304872E1
9.289846542E0,4.192338140E0,1.327936355E1,-1.160196344E0,1.397366276E1
9.299899542E0,4.884266358E0,1.340861274E1,-9.924584377E-1,1.430496163E1
9.309952542E0,5.258063067E0,1.352343568E1,-1.262183479E0,1.456446522E1
9.320005542E0,5.204000296E0,1.333426072E1,-1.496650980E0,1.439180642E1
9.330058542E0,4.763392424E0,1.304790035E1,-1.580279027E0,1.397980302E1
9.340111542E0,4.126103220E0,1.275381814E1,-1.382907432E0,1.347579452E1
9.350164542E0,2.996838940E0,1.241536493E1,-9.849716628E-1,1.280985945E1
9.360217542E0,1.609682628E0,1.197361948E1,-6.022690594E-1,1.209633703E1
9.370269542E0,1.280008131E-1,1.151432537E1,-3.352559566E-2,1.151508562E1
9.380322542E0,-1.462597819E0,1.111736258E1,7.286636424E-1,1.123680977E1
9.390375542E0,-3.041181884E0,1.090047765E1,1.581220429E0,1.142669936E1
9.400428542E0,-4.428365386E0,1.064707570E1,2.522263130E0,1.180391682E1
9.410481542E0,-5.269606056E0,1.033821407E1,3.372548858E0,1.208393578E1
9.420534542E0,-5.320293814E0,9.988880360E0,3.983126226E0,1.199785613E1
9.430587542E0,-4.637122679E0,9.316413723E0,3.200943604E0,1.088781481E1
9.440640542E0,-4.385377825E0,8.562849128E0,2.722681124E0,9.998345681E0
9.450693542E0,-4.868070448E0,7.380371969E0,5.023368110E0,1.016868858E1
9.460746542E0,-4.928344424E0,6.116602140E0,5.834799090E0,9.785002857E0
9.470799542E0,-4.057412762E0,5.465865510E0,3.763608302E0,7.778369466E0
9.480852542E0,-3.185129809E0,5.383796915E0,1.119569889E0,6.354821623E0
9.490905542E0,-2.855575180E0,5.674468437E0,-1.169420326E0,6.459214004E0
9.500958542E0,-2.672210005E0,5.611648291E0,-2.425168360E0,6.671787199E0
9.511011542E0,-1.924698740E0,4.664418651E0,-2.704432549E0,5.724964804E0
9.521063542E0,1.372943777E-1,1.911209798E0,-1.684094002E0,2.551028273E0
9.531116542E0,1.713367795E0,-5.231543605E0,-1.046848653E0,5.603621133E0
9.541169542E0,5.237041157E0,-2.024151692E1,-9.571295607E-1,2.092992366E1
9.551222542E0,7.753783346E0,-3.643719331E1,-1.417332914E0,3.728000865E1
9.561275542E0,1.029423015E1,-5.015030097E1,-4.701554317E0,5.141136523E1
9.571328542E0,1.185812294E1,-5.708805977E1,-7.043868801E0,5.873055198E1
9.581381542E0,1.044352009E1,-4.863364550E1,-7.590310400E0,5.031810210E1
9.591434542E0,6.273132688E0,-2.864656900E1,-6.316516689E0,2.999794146E1
9.601487542E0,3.390241948E0,-1.623327515E1,-3.862753690E0,1.702744340E1
9.611540542E0,1.899819422E0,-9.589046584E0,6.903188447E-1,9.799778995E0
9.621593542E0,3.884377571E0,-5.386919913E0,1.190997020E1,1.363652028E1
9.631646542E0,8.356394468E0,-5.715549220E0,1.048551713E1,1.457542112E1
9.641699542E0,8.089759680E0,-8.466655998E0,9.014115158E-1,1.174482942E1
9.651752542E0,4.947084750E0,-9.866975269E0,-3.534046177E-1,1.104335743E1
9.661805542E0,2.476326234E0,-8.739674191E0,3.575958288E-1,9.090762970E0
9.671857542E0,1.371812633E0,-6.647526398E0,1.083512449E0,6.873534486E0
9.681910542E0,5.543594594E-1,-4.888738309E0,1.849666100E0,5.256266863E0
9.691963542E0,2.445685655E-2,-3.111317482E0,2.403086350E0,3.931376173E0
9.702016542E0,-1.861655523E-1,-1.152282722E0,2.669359195E0,2.913398633E0
9.712069542E0,-3.036454703E-1,8.190235895E-1,2.624954270E0,2.766475218E0
9.722122542E0,-4.814348862E-1,3.044155778E0,2.394971584E0,3.903146531E0
9.732175542E0,-6.293208372E-1,5.351620857E0,2.047533538E0,5.764397982E0
9.742228542E0,-9.793910801E-1,7.355558724E0,1.627919801E0,7.596945038E0
9.752281542E0,-1.102385507E0,9.165380727E0,1.133543565E0,9.300773016E0
9.762334542E0,-1.178943248E0,1.076532979E1,6.688898957E-1,1.085032932E1
9.772387542E0,-9.205847552E-1,1.179176289E1,-5.395577081E-1,1.183994387E1
9.782440542E0,-2.496635368E-1,1.216030470E1,-1.654366758E0,1.227486341E1
9.792493542E0,9.056007535E-1,1.234499369E1,-2.233122994E0,1.257798951E1
9.802546542E0,1.859893757E0,1.230566181E1,-1.887806318E0,1.258778495E1
9.812598542E0,2.801753021E0,1.255586650E1,-1.350939535E0,1.293540263E1
9.822650333E0,3.533915638E0,1.292736701E1,-8.556710136E-1,1.342898174E1
9.832703333E0,4.396339893E0,1.338368372E1,-4.916034865E-1,1.409583160E1
9.842756333E0,5.191961464E0,1.349938959E1,-7.147402525E-1,1.448105096E1
9.852809333E0,5.462979324E0,1.329220637E1,-1.433269501E0,1.444233896E1
9.862862333E0,5.273022584E0,1.292333828E1,-2.115196933E0,1.411706405E1
9.872915333E0,4.751508835E0,1.249642371E1,-2.327575992E0,1.357037405E1
9.882968333E0,3.835138168E0,1.216815985E1,-2.072256736E0,1.292542637E1
9.893021333E0,2.589951083E0,1.185417022E1,-1.337174020E0,1.220726147E1
9.903074333E0,1.002772488E0,1.168188786E1,-2.641421199E-2,1.172487758E1
9.913127333E0,-7.933103125E-1,1.180039689E1,1.636390078E0,1.193970186E1
9.923180333E0,-2.174087019E0,1.177207297E1,2.541741375E0,1.223800661E1
9.933233333E0,-2.952002783E0,1.169213218E1,2.477013867E0,1.231080310E1
9.943286333E0,-3.360436351E0,1.162760114E1,2.580980870E0,1.237558495E1
9.953338333E0,-3.085723927E0,1.102563380E1,2.210339318E0,1.166069863E1
9.963391333E0,-2.040347895E0,9.605311199E0,6.381955218E-1,9.840341269E0
9.973444333E0,-2.081478526E0,8.397065361E0,5.648439556E-1,8.669619843E0
9.983497333E0,-2.676400997E0,7.289240189E0,1.554201030E0,7.919071011E0
9.993550333E0,-2.859438727E0,6.440763590E0,2.523343111E0,7.485124308E0
1.000360333E1,-2.711151000E0,4.995331296E0,6.446137181E0,8.593972251E0
1.001365633E1,-2.259002770E0,3.659136685E0,7.529165481E0,8.670680921E0
1.002370933E1,-1.856134874E0,3.503582622E0,1.773330114E0,4.343388948E0
1.003376233E1,-1.624241610E0,3.600783226E0,-2.491776332E0,4.670412181E0
1.004381533E1,-1.213543123E0,3.533941950E0,-3.612560688E0,5.197309626E0
1.005386833E1,-4.792787254E-1,2.580463976E0,-2.969946426E0,3.963468708E0
1.006392133E1,-1.176053408E-1,-1.515800611E0,-2.509046084E0,2.933733928E0
1.007397433E1,2.795333948E0,-1.197569290E1,-1.609313377E0,1.240245951E1
1.008402733E1,5.867613080E0,-2.660339514E1,-1.713374519E0,2.729661460E1
1.009407933E1,7.304168715E0,-3.948782839E1,-3.397286088E0,4.030112932E1
1.010413233E1,7.089163088E0,-4.732582450E1,-2.558942129E0,4.792220866E1
1.011418533E1,5.855618101E0,-4.998091883E1,-4.417000737E0,5.051623903E1
1.012423833E1,2.858089190E0,-3.905752477E1,-6.365592370E0,3.967593328E1
1.013429133E1,8.303680649E-1,-2.428140967E1,-5.491924796E0,2.490858496E1
1.014434433E1,9.555765402E-1,-1.620641655E1,-4.902617844E0,1.695867700E1
1.015439733E1,2.850952079E0,-1.177278984E1,-3.211846322E0,1.253165852E1
1.016445033E1,7.300675589E0,-1.003976517E1,3.647912954E0,1.293847045E1
1.017450333E1,1.467132598E1,-8.869844322E0,1.922140116E1,2.575624597E1
1.018455633E1,1.065902741E1,-7.565361500E0,1.120240331E1,1.721462750E1
1.019460933E1,5.464100236E0,-7.057931939E0,2.234790620E0,9.201363147E0
1.020466233E1,1.800661901E0,-7.579319973E0,3.363906673E0,8.485537263E0
1.021471533E1,2.255339782E-1,-7.094536094E0,3.109806561E0,7.749464808E0
1.022476833E1,-1.563370049E-1,-5.685088150E0,2.204472806E0,6.099538416E0
1.023482133E1,-3.922718641E-1,-3.941768870E0,1.415065949E0,4.206403532E0
1.024487333E1,-5.151648420E-1,-2.028020795E0,9.199424386E-1,2.285729041E0
1.025492633E1,-6.256457891E-1,1.289802217E-1,6.367875123E-1,9.019794270E-1
1.026497933E1,-8.516903023E-1,2.542868133E0,3.507522110E-1,2.704548359E0
1.027503233E1,-9.251761352E-1,4.821438611E0,6.147884963E-2,4.909786228E0
1.028508533E1,-9.013638610E-1,6.761888580E0,-2.917480310E-1,6.827936064E0
1.029513833E1,-7.126848100E-1,8.700327693E0,-8.734757853E-1,8.773059988E0
1.030519133E1,-4.025250664E-1,1.038829197E1,-1.549941334E0,1.051099208E1
1.031524433E1,-4.217055783E-2,1.149599201E1,-2.280525202E0,1.172008557E1
1.032529733E1,6.448720188E-1,1.202326000E1,-2.810722650E0,1.236425504E1
1.033535033E1,1.807049107E0,1.232948102E1,-2.887905897E0,1.279146314E1
1.034540333E1,3.071987940E0,1.271483826E1,-2.236542445E0,1.327050655E1
1.035545633E1,4.142878882E0,1.334415303E1,-2.180457122E0,1.414157908E1
1.036550933E1,4.947035633E0,1.370688857E1,-1.630825868E0,1.466327210E1
1.037556133E1,5.610963582E0,1.408340014E1,-1.098757310E0,1.519974800E1
1.038561433E1,5.633850169E0,1.399172515E1,-7.044281030E-1,1.509982978E1
1.039566733E1,5.421189859E0,1.371724749E1,-6.546367228E-1,1.476417040E1
1.040572033E1,4.779314100E0,1.335684851E1,-6.525633001E-1,1.420116489E1
1.041577333E1,3.780659952E0,1.284116268E1,-6.439409959E-1,1.340162336E1
1.042582633E1,2.508283607E0,1.232548387E1,-4.058599162E-1,1.258466374E1
1.043587933E1,9.101539072E-1,1.202536851E1,2.798185050E-1,1.206300818E1
1.044593233E1,-6.754833622E-1,1.186969575E1,1.346673406E0,1.196492725E1
1.045598533E1,-2.180164908E0,1.184965149E1,2.484962572E0,1.230212984E1
1.046603833E1,-3.361573342E0,1.186940105E1,3.259170177E0,1.275950809E1
1.047609133E1,-4.003383320E0,1.176011191E1,4.158038081E0,1.310025155E1
1.048614433E1,-3.954766061E0,1.116393682E1,5.326928065E0,1.298652465E1
1.049619733E1,-2.212175197E0,9.690785213E0,4.010940846E0,1.071880047E1
1.050625033E1,-5.954088137E-1,8.573127948E0,1.625289139E0,8.746119097E0
1.051630233E1,-8.963788904E-1,7.385045063E0,1.566675480E0,7.602424466E0
1.052635533E1,-1.759338897E0,6.606245055E0,1.296844604E0,6.958415984E0
1.053640833E1,-2.284306888E0,5.981494621E0,2.611299852E0,6.914855225E0
1.054646133E1,-2.085368240E0,4.005699987E0,7.572425521E0,8.816803352E0
1.055651433E1,-1.719652090E0,2.981557242E0,5.071482509E0,6.129177900E0
1.056656733E1,-1.615413192E0,3.757724249E0,-2.166558291E0,4.628609525E0
1.057662033E1,-1.241907089E0,3.457798339E0,-3.980321901E0,5.416794717E0
1.058667333E1,-4.165205598E-1,2.904765174E0,-3.620578390E0,4.660443967E0
1.059672633E1,8.659866714E-1,1.890172686E0,-2.511853917E0,3.260689466E0
1.060677933E1,1.987573265E0,9.005355299E-2,-1.438296352E0,2.455046542E0
1.061683233E1,2.918226049E0,-6.223528419E0,-1.478429301E0,7.030938945E0
1.062688533E1,6.501289873E0,-1.857861440E1,-7.730095106E-1,1.969845747E1
1.063693833E1,9.655289106E0,-3.235279155E1,-1.963768666E0,3.381987754E1
1.064699133E1,1.169392844E1,-4.471635249E1,-4.674527317E0,4.645590757E1
1.065704333E1,1.193604059E1,-5.241445046E1,-5.818936763E0,5.407035886E1
1.066709633E1,7.216202034E0,-4.744532756E1,-5.885109118E0,4.835046213E1
1.067714933E1,1.052243002E0,-2.752953095E1,-4.695741016E0,2.794695464E1
1.068720233E1,-1.093783376E0,-1.532701286E1,-2.943922223E0,1.564545823E1
1.069725533E1,-1.993648230E0,-9.558960906E0,-1.053019220E0,9.821263480E0
1.070730833E1,-1.678771574E0,-6.989915957E0,1.159588233E0,7.281609984E0
1.071736133E1,1.252563932E0,-8.926412040E0,4.799264799E0,1.021188968E1
1.072741433E1,5.616586849E0,-1.218776791E1,9.285005404E0,1.631867212E1
1.073746733E1,5.657076479E0,-1.112110947E1,6.909336648E0,1.426255668E1
1.074752033E1,3.349243903E0,-8.527962300E0,2.609406524E0,9.526414757E0
1.075757333E1,2.158381544E0,-6.658004608E0,1.484653662E0,7.154846801E0
1.076762633E1,1.346512316E0,-5.154633424E0,1.780312275E0,5.617192621E0
1.077767933E1,8.698626445E-1,-3.719201038E0,2.429668962E0,4.526854166E0
1.078773233E1,6.544667150E-1,-2.014786207E0,2.723382790E0,3.450290417E0
1.079778533E1,4.263954838E-1,-5.559649587E-2,2.633784735E0,2.668656237E0
1.080783733E1,1.865496413E-1,2.288767437E0,2.309402261E0,3.256776927E0
1.081789033E1,-1.910795523E-1,4.702199265E0,1.891665480E0,5.072039788E0
1.082794329E1,-5.767484482E-1,6.966444064E0,1.402358780E0,7.129557618E0
1.083799629E1,-7.255754355E-1,9.103511923E0,9.126497912E-1,9.177871141E0
1.084804929E1,-4.222137744E-1,1.096829951E1,2.585732317E-1,1.097946805E1
1.085810229E1,-1.232039036E-1,1.203238400E1,-5.595434546E-1,1.204601730E1
1.086815529E1,4.630596821E-1,1.249702246E1,-1.192812113E0,1.256235629E1
1.087820829E1,1.551969294E0,1.255619395E1,-1.565921774E0,1.274828326E1
1.088826129E1,2.465539876E0,1.287560161E1,-1.433469476E0,1.318767752E1
1.089831429E1,3.211090569E0,1.310626257E1,-1.636197120E0,1.359273197E1
1.090836729E1,3.831772511E0,1.337769968E1,-1.626969629E0,1.401043752E1
1.091842029E1,4.056172568E0,1.335207250E1,-2.027143713E0,1.410105271E1
1.092847329E1,3.782549188E0,1.292315351E1,-2.387274894E0,1.367533021E1
1.093852629E1,3.239156620E0,1.239793321E1,-2.539007217E0,1.306320945E1
1.094857829E1,2.536283876E0,1.200231995E1,-2.337026846E0,1.248799882E1
1.095863129E1,1.679861495E0,1.169563817E1,-1.908531189E0,1.196880855E1
1.096868429E1,7.349143159E-1,1.150678714E1,-1.219134523E0,1.159450466E1
1.097873729E1,-2.776080383E-1,1.156588612E1,-1.964097279E-1,1.157088435E1
1.098879029E1,-1.196156281E0,1.175932253E1,9.442516530E-1,1.185765860E1
1.099884329E1,-1.646230503E0,1.203919250E1,1.787997855E0,1.228206689E1
1.100889629E1,-1.491324897E0,1.234626955E1,2.156121011E0,1.262154030E1
1.101894929E1,-8.432962587E-1,1.269002502E1,2.381897795E0,1.293913910E1
1.102900229E1,5.437591153E-1,1.289378879E1,2.582033368E0,1.316101667E1
1.103905529E1,2.389906287E0,1.206625341E1,1.712559417E0,1.241929882E1
1.104910829E1,3.120326872E0,1.075575322E1,-4.642627101E-2,1.119932241E1
1.105916129E1,2.657032388E0,9.253746189E0,-3.570579215E-1,9.634268524E0
1.106921429E1,8.031245716E-1,7.780400457E0,-3.277785373E-1,7.828606461E0
1.107926629E1,-9.832508272E-1,7.156666853E0,-1.020256174E0,7.295586700E0
1.108931929E1,-1.792017670E0,6.540470311E0,4.375763103E-1,6.795627436E0
1.109937229E1,-1.799192934E0,4.956765985E0,4.169091073E0,6.722197901E0
1.110942529E1,-1.014165056E0,4.182086509E0,3.528757224E0,5.565115082E0
1.111947829E1,-4.204940352E-1,4.191183608E0,-2.844349549E-1,4.221816968E0
1.112953129E1,2.011427566E-1,3.333794682E0,-6.933575696E-1,3.411068764E0
1.113958429E1,7.429384500E-1,1.972570480E0,5.791748965E-1,2.185963265E0
1.114963729E1,3.753152311E-1,1.664888238E0,-6.577451026E-1,1.829027880E0
1.115969029E1,-2.872158176E-1,4.674264193E-2,-2.120483986E0,2.140357478E0
1.116974329E1,1.400172506E0,-8.340743811E0,-1.829518349E0,8.653070423E0
1.117979629E1,4.950009527E0,-2.370041395E1,-1.756648008E0,2.427546144E1
1.118984929E1,7.782199060E0,-4.198328905E1,-6.347260180E0,4.316766027E1
1.119990229E1,8.580070932E0,-5.436711176E1,-5.483567955E0,5.531247577E1
1.120995529E1,7.481707140E0,-5.602817007E1,-5.089265646E0,5.675414001E1
1.122000829E1,3.823055482E0,-4.028909340E1,-6.786251589E0,4.103510705E1
1.123006029E1,-1.512557745E-2,-2.281452570E1,-3.945064945E0,2.315310668E1
1.124011329E1,-1.081382309E0,-1.421144480E1,-1.360794432E0,1.431734307E1
1.125016629E1,9.154614249E-1,-9.263740250E0,4.676925845E0,1.041770552E1
1.126021929E1,9.391182654E0,-8.442408180E0,2.103634298E1,2.453561276E1
1.127027229E1,1.123839643E1,-1.028252987E1,1.421031629E1,2.083182815E1
1.128032529E1,5.970959108E0,-1.093671285E1,1.909782493E0,1.260600293E1
1.129037829E1,2.314793978E0,-1.024151867E1,1.732979064E0,1.064190736E1
1.130043129E1,2.606941630E-1,-8.852771621E0,1.486143533E0,8.980431472E0
1.131048429E1,-7.677345912E-1,-7.355790274E0,1.166717159E0,7.487208818E0
1.132053729E1,-1.231448467E0,-5.510463393E0,7.580131567E-1,5.697039238E0
1.133059029E1,-1.412154766E0,-3.420440478E0,3.144609554E-1,3.713822807E0
1.134064329E1,-1.454851281E0,-1.238936119E0,2.485651374E-2,1.911065882E0
1.135069629E1,-1.486864495E0,1.090577055E0,-1.292913119E-1,1.848469795E0
1.136074929E1,-1.573789787E0,3.578142223E0,-1.275991277E-1,3.911035361E0
1.137080229E1,-1.511903295E0,5.954289865E0,-1.696312527E-1,6.145583303E0
1.138085429E1,-1.390236186E0,7.883099198E0,-3.778002977E-1,8.013659756E0
1.139090729E1,-9.680473356E-1,9.793813738E0,-6.914659953E-1,9.865800950E0
1.140096029E1,-3.817097096E-1,1.122940341E1,-1.148873795E0,1.129447273E1
1.141101329E1,3.826863773E-1,1.217972448E1,-1.412152866E0,1.226728629E1
1.142106629E1,1.860160828E0,1.296473657E1,-1.257717376E0,1.315775230E1
1.143111929E1,3.674007323E0,1.346813973E1,-4.481048799E-1,1.396745917E1
1.144117229E1,5.407597421E0,1.427452223E1,-1.521094863E-1,1.526522951E1
1.145122529E1,6.659741816E0,1.475686606E1,-4.509220684E-1,1.619631402E1
1.146127829E1,7.214971195E0,1.495731096E1,-5.081861901E-1,1.661430750E1
1.147133129E1,7.218425730E0,1.491497244E1,-1.051414744E0,1.660323901E1
1.148138429E1,6.491765344E0,1.439848320E1,-1.398140599E0,1.585604405E1
1.149143729E1,5.046378073E0,1.368405870E1,-1.400176599E0,1.465195852E1
1.150149029E1,3.460717853E0,1.287710318E1,-1.247066088E0,1.339221894E1
1.151154229E1,1.981427988E0,1.217441988E1,-6.539619541E-1,1.235193194E1
1.152159529E1,4.191640860E-1,1.156355425E1,3.651317568E-1,1.157690833E1
1.153164829E1,-1.099430178E0,1.099100892E1,1.669963621E0,1.117138319E1
1.154170129E1,-2.481282919E0,1.057646004E1,3.063866158E0,1.128740660E1
1.155175429E1,-3.248043510E0,1.024767345E1,3.921362672E0,1.144297527E1
1.156180729E1,-3.132511007E0,9.897310624E0,3.671354442E0,1.101127723E1
1.157186029E1,-2.473204406E0,9.562985544E0,2.873162727E0,1.028700620E1
1.158191329E1,-1.824847008E0,9.108376806E0,2.231035538E0,9.553539356E0
1.159196629E1,-6.549618280E-1,8.546935930E0,1.776854231E0,8.754216113E0
1.160201929E1,2.369277164E-2,8.082705014E0,1.100507966E0,8.157315703E0
1.161207229E1,-3.476600938E-1,7.708310720E0,3.909419149E-1,7.726044090E0
1.162212529E1,-1.167678879E0,7.201622586E0,6.707300144E-1,7.326439831E0
1.163217829E1,-2.143478307E0,6.810449122E0,2.870848399E-1,7.145567451E0
1.164223129E1,-2.628077268E0,6.521066326E0,1.402489758E-1,7.032123856E0
1.165228329E1,-2.296632234E0,5.648222040E0,2.132373129E0,6.459407635E0
1.166233629E1,-1.474069617E0,4.645001217E0,2.722960036E0,5.582421419E0
1.167238929E1,-7.277973774E-1,4.106450436E0,7.694789618E-1,4.240839785E0
1.168244229E1,2.393122110E-1,3.134178341E0,-1.685666903E0,3.566765638E0
1.169249529E1,1.226374546E0,1.054924242E0,-1.503592794E0,2.208540462E0
1.170254829E1,1.155176801E0,-3.530326617E0,-1.265110595E0,3.924046927E0
1.171260129E1,3.156040788E0,-1.307426895E1,-1.353124055E0,1.351769384E1
1.172265429E1,5.809916264E0,-2.512121719E1,-7.294939470E-1,2.579462815E1
1.173270729E1,7.440477837E0,-3.698917982E1,-2.440619043E0,3.780895074E1
1.174276029E1,8.641557328E0,-4.653322741E1,-3.532401209E0,4.746046380E1
1.175281329E1,8.608711179E0,-4.999154205E1,-4.080085925E0,5.089117100E1
1.176286629E1,6.556494606E0,-3.713131160E1,-5.188688192E0,3.806106157E1
1.177291929E1,4.664990801E0,-2.093315834E1,-4.667778461E0,2.194874513E1
1.178297229E1,3.942391598E0,-1.390009227E1,-3.306803935E0,1.482194214E1
1.179302529E1,4.689071974E0,-1.018513046E1,-4.829929133E-1,1.122308160E1
1.180307729E1,7.713730504E0,-9.445236654E0,5.068407458E0,1.320616856E1
1.181313029E1,7.622407520E0,-9.654159424E0,7.179390303E0,1.424245540E1
1.182318342E1,3.982530980E0,-9.649268813E0,3.642477382E0,1.105606544E1
1.183323642E1,1.404380455E0,-9.308242823E0,2.429152068E0,9.721957040E0
1.184328942E1,-1.305038600E-1,-8.318011006E0,2.673518904E0,8.738079977E0
1.185334242E1,-9.213796842E-1,-6.999684901E0,2.799763799E0,7.594946120E0
1.186339542E1,-1.086916991E0,-5.093696666E0,2.728136576E0,5.879614226E0
1.187344842E1,-1.082686822E0,-3.054698893E0,2.408885618E0,4.038084447E0
1.188350142E1,-1.112161321E0,-9.803681499E-1,1.978952715E0,2.472706688E0
1.189355442E1,-1.202935251E0,1.220044350E0,1.566506495E0,2.321530537E0
1.190360742E1,-1.355033901E0,3.467659083E0,1.177895865E0,3.904896293E0
1.191366042E1,-1.419324184E0,5.454225458E0,8.019631684E-1,5.692644500E0
1.192371342E1,-1.494533703E0,7.328375604E0,4.131233275E-1,7.490620192E0
1.193376642E1,-1.280942078E0,9.212363105E0,-3.584222596E-2,9.301060759E0
1.194381842E1,-1.018257084E0,1.059583889E1,-6.692161703E-1,1.066566920E1
1.195387142E1,-7.097011220E-1,1.131307356E1,-1.714338140E0,1.146421669E1
1.196392442E1,-2.956178873E-2,1.166597408E1,-2.956106651E0,1.203471610E1
1.197397742E1,8.154578112E-1,1.164614149E1,-2.662448956E0,1.197439842E1
1.198403042E1,1.677687062E0,1.187641771E1,-1.625610151E0,1.210398859E1
1.199408342E1,2.268960871E0,1.204017015E1,-1.230554720E0,1.231373808E1
1.200413642E1,2.916659872E0,1.250181718E1,-4.933026874E-1,1.284701075E1
1.201418942E1,3.744226244E0,1.282800995E1,3.350105563E-2,1.336331515E1
1.202424242E1,4.372319239E0,1.299711377E1,-6.529700836E-2,1.371300133E1
1.203429542E1,4.698903190E0,1.308757020E1,-5.775727594E-1,1.391753481E1
1.204434842E1,4.456294319E0,1.291263320E1,-8.200930452E-1,1.368456093E1
1.205440142E1,3.770801839E0,1.263748428E1,-8.237931633E-1,1.321376519E1
1.206445442E1,2.568770421E0,1.238868525E1,-3.962985492E-1,1.265840260E1
1.207450742E1,1.155642459E0,1.217697862E1,3.487583470E-1,1.223666418E1
1.208455942E1,-1.572064128E-1,1.229837267E1,1.363354343E0,1.237470885E1
1.209461242E1,-1.222647896E0,1.252018212E1,2.291233208E0,1.278669534E1
1.210466542E1,-1.554893048E0,1.237632424E1,2.353238252E0,1.269365291E1
1.211471842E1,-1.462072446E0,1.211442862E1,1.867253940E0,1.234437823E1
1.212477142E1,-1.218276664E0,1.201112469E1,1.489365349E0,1.216427242E1
1.213482442E1,-6.250865029E-1,1.133922816E1,1.249114952E0,1.142493398E1
1.214487742E1,7.421973154E-2,9.372178034E0,1.335894649E0,9.467198328E0
1.215493042E1,1.135476655E-1,8.059837139E0,1.487444538E0,8.196728557E0
1.216498342E1,-3.126418501E-1,7.572261214E0,6.148592111E-1,7.603613396E0
1.217503642E1,-6.660007864E-1,7.064997130E0,1.076471232E0,7.177501780E0
1.218508942E1,-8.136251476E-1,5.692914063E0,5.831925184E0,8.190397289E0
1.219514242E1,-6.055090016E-1,2.384185810E0,1.040183529E1,1.068873989E1
1.220519542E1,-5.229831541E-1,3.848415148E-1,7.428766449E0,7.457089602E0
1.221524742E1,-5.605678868E-1,2.152184665E0,-2.011530477E0,2.998731407E0
1.222530042E1,-5.472590393E-1,2.622729989E0,-5.713013867E0,6.310050119E0
1.223535342E1,-7.757346055E-1,2.479757965E0,-4.443066455E0,5.147018872E0
1.224540642E1,-2.046581027E-1,2.109283644E0,-2.787865300E0,3.501878833E0
1.225545942E1,6.047640663E-1,7.436453784E-1,-1.753120383E0,1.998043819E0
1.226551242E1,1.087623919E0,-6.061351799E0,-1.557885945E0,6.352158692E0
1.227556542E1,5.631948069E0,-2.264189250E1,-1.671608443E0,2.339163120E1
1.228561842E1,9.739863818E0,-3.968620804E1,-2.719004980E0,4.095427992E1
1.229567142E1,1.206926239E1,-4.900469110E1,-2.545513998E0,5.053322160E1
1.230572442E1,1.332936543E1,-5.502551760E1,-5.528407329E0,5.688622731E1
1.231577742E1,9.631930064E0,-4.969499934E1,-7.508803137E0,5.117371553E1
1.232583042E1,2.880866726E0,-2.927986221E1,-5.501178600E0,2.993113246E1
1.233588342E1,2.659301984E-1,-1.668947141E1,-4.408262073E0,1.726389149E1
1.234593642E1,-3.623440602E-1,-9.875615115E0,-3.264272457E0,1.040742724E1
1.235598942E1,7.526977453E-1,-6.186316153E0,-4.687899899E-1,6.249546024E0
1.236604142E1,4.086231934E0,-5.823568928E0,8.592856454E0,1.115564559E1
1.237609442E1,5.377573723E0,-6.885273601E0,1.734120557E1,1.941758745E1
1.238614742E1,3.271448745E0,-6.232146630E0,9.237668685E0,1.161363643E1
1.239620042E1,1.640145599E0,-5.374257767E0,3.169739352E0,6.451354253E0
1.240625342E1,-3.550907354E-1,-5.241343539E0,1.884626602E0,5.581181680E0
1.241630642E1,-9.948701218E-1,-4.487049211E0,1.223201262E0,4.756006572E0
1.242635942E1,-1.074272825E0,-3.219956995E0,1.171979653E0,3.591061327E0
1.243641242E1,-1.057500672E0,-1.369169399E0,1.323716068E0,2.178338069E0
1.244646542E1,-1.093122348E0,8.147562915E-1,1.508675194E0,2.033431858E0
1.245651842E1,-1.168836043E0,3.430244504E0,1.414427433E0,3.890161953E0
1.246657142E1,-1.079509957E0,5.836542145E0,1.085016353E0,6.033889827E0
1.247662442E1,-8.887917627E-1,8.227266896E0,4.760007763E-1,8.288814639E0
1.248667742E1,-4.099737248E-1,1.051120278E1,-2.452930355E-1,1.052205450E1
1.249672942E1,6.799113856E-1,1.214520368E1,-7.855968118E-1,1.218956170E1
1.250678242E1,1.936052571E0,1.297230988E1,-1.083043503E0,1.316062713E1
1.251683542E1,3.692993525E0,1.357633427E1,-1.471919596E0,1.414643421E1
1.252688842E1,5.167887892E0,1.366632175E1,-1.694542977E0,1.470873521E1
1.253694142E1,6.149808478E0,1.397412854E1,-1.811543423E0,1.537459275E1
1.254699442E1,6.544221885E0,1.416240304E1,-1.841403984E0,1.570959161E1
1.255704742E1,6.515009195E0,1.437349688E1,-1.562523372E0,1.585825453E1
1.256710042E1,6.040673706E0,1.423471555E1,-1.666801447E0,1.555297697E1
1.257715342E1,4.852518024E0,1.351721191E1,-1.438044337E0,1.443363850E1
1.258720642E1,3.441560328E0,1.282007411E1,-1.161876833E0,1.332473623E1
1.259725942E1,2.006282017E0,1.229470179E1,-7.819458103E-1,1.248183876E1
1.260731242E1,5.394266208E-1,1.190463169E1,-1.270599961E-2,1.191685354E1
1.261736542E1,-1.001937578E0,1.177776348E1,1.031673374E0,1.186524090E1
1.262741842E1,-2.325183019E0,1.172814518E1,1.857869743E0,1.209989857E1
1.263747042E1,-3.019316806E0,1.139997488E1,1.709903612E0,1.191635312E1
1.264752342E1,-3.180874205E0,1.109232480E1,1.219643816E0,1.160367016E1
1.265757642E1,-3.213632061E0,1.085649022E1,8.261063218E-1,1.135223602E1
1.266762942E1,-3.130924950E0,1.041322099E1,7.036305428E-1,1.089646540E1
1.267768242E1,-2.642036911E0,9.346891165E0,1.117752575E0,9.777223752E0
1.268773542E1,-1.869022284E0,8.325088475E0,1.931192658E0,8.748133944E0
1.269778842E1,-1.268524054E0,7.826805714E0,2.849011388E0,8.425254112E0
1.270784142E1,-1.614630250E0,7.553607427E0,2.843555351E0,8.231028067E0
1.271789442E1,-2.396927916E0,7.115975495E0,3.828039356E0,8.428300896E0
1.272794742E1,-2.937107878E0,5.841656705E0,7.621929803E0,1.004217953E1
1.273800042E1,-3.429470918E0,4.924987537E0,6.072365615E0,8.537587316E0
1.274805342E1,-3.595710182E0,4.477790145E0,2.885016203E0,6.426745272E0
1.275810642E1,-3.243429180E0,4.399991772E0,-4.289476838E-1,5.483042636E0
1.276815942E1,-2.852787520E0,4.969956134E0,-3.828560343E0,6.891787497E0
1.277821142E1,-2.715824971E0,4.908278534E0,-4.761839111E0,7.358125791E0
1.278826442E1,-1.645356491E0,3.600330652E0,-4.466883334E0,5.968469277E0
1.279831742E1,-8.754772872E-2,-1.556144645E0,-4.097556236E0,4.383972841E0
1.280837042E1,3.730676199E0,-1.517451163E1,-3.297171232E0,1.597044414E1
1.281842342E1,8.986937739E0,-3.622096795E1,-4.885554500E0,3.763764355E1
1.282847658E1,1.337057777E1,-5.520230465E1,-7.336428389E0,5.727032365E1
1.283852958E1,1.562077814E1,-6.346108044E1,-5.509216182E0,6.558710928E1
1.284858258E1,1.310329687E1,-5.288954843E1,-7.340696272E0,5.498078340E1
1.285863558E1,5.436651067E0,-3.165865923E1,-6.257315969E0,3.272585953E1
1.286868858E1,5.923229456E-1,-1.813961247E1,-2.616115619E0,1.833686036E1
1.287874158E1,-1.373464764E0,-1.075352777E1,1.651218617E-1,1.084214140E1
1.288879458E1,-1.228156777E0,-6.470143510E0,6.769922655E0,9.444732863E0
1.289884758E1,4.205419824E0,-5.758185362E0,2.163542297E1,2.278011812E1
1.290890058E1,7.608836718E0,-8.524894851E0,1.322750693E1,1.747956430E1
1.291895358E1,4.687457850E0,-8.802646365E0,2.297255255E0,1.023407181E1
1.292900558E1,1.880535598E0,-7.582642361E0,1.373845417E0,7.932233641E0
1.293905858E1,7.702892397E-1,-6.173160503E0,1.425072874E0,6.382169600E0
1.294911158E1,2.696482967E-1,-4.684193349E0,1.807879558E0,5.028201073E0
1.295916458E1,5.675746053E-2,-2.786779472E0,1.904742193E0,3.376004155E0
1.296921758E1,2.121837616E-2,-7.937408137E-1,1.535240264E0,1.728420483E0
1.297927058E1,-9.597429737E-2,1.560749327E0,9.997814906E-1,1.855993684E0
1.298932358E1,-1.918445143E-1,4.269417014E0,4.866111338E-1,4.301338902E0
1.299937658E1,-3.403487718E-1,6.850517752E0,-1.450846596E-1,6.860501462E0
1.300942958E1,-2.987980006E-1,9.247314252E0,-8.600447309E-1,9.292027661E0
1.301948258E1,3.043226327E-1,1.120305703E1,-1.222732315E0,1.127369387E1
1.302953558E1,1.163312325E0,1.234728930E1,-1.053394611E0,1.244662560E1
1.303958858E1,2.705261976E0,1.307879236E1,-1.441946403E-1,1.335642332E1
1.304964158E1,4.512079680E0,1.363540285E1,4.913193484E-1,1.437095921E1
1.305969358E1,5.925014026E0,1.409159676E1,2.988149393E-1,1.528947942E1
1.306974658E1,6.708975372E0,1.446367732E1,-5.683774281E-1,1.595403914E1
1.307979958E1,6.786013023E0,1.448039334E1,-9.748127103E-1,1.602129906E1
1.308985258E1,6.330314364E0,1.421672250E1,-1.518296202E0,1.563628159E1
1.309990558E1,4.978053358E0,1.337561339E1,-1.804948933E0,1.438561398E1
1.310995858E1,3.338164306E0,1.248495030E1,-1.569744684E0,1.301850312E1
1.312001158E1,1.956071683E0,1.176182865E1,-1.156907870E0,1.197936833E1
1.313006458E1,7.910917327E-1,1.127064149E1,-5.818108213E-1,1.131334122E1
1.314011758E1,-3.087570331E-1,1.104222118E1,1.526205146E-1,1.104759125E1
1.315017058E1,-1.554636940E0,1.109618864E1,1.297736889E0,1.127946893E1
1.316022358E1,-2.527537903E0,1.121206057E1,2.247619411E0,1.171112903E1
1.317027658E1,-2.945697730E0,1.121270026E1,2.412853539E0,1.184160649E1
1.318032958E1,-3.153106948E0,1.120213551E1,2.054978213E0,1.181748107E1
1.319038258E1,-3.205941511E0,1.127912697E1,1.396784045E0,1.180880061E1
1.320043458E1,-2.818323446E0,1.142258255E1,6.027765977E-1,1.178056361E1
1.321048758E1,-1.270836920E0,1.119606727E1,1.092278156E-3,1.126796121E1
1.322054058E1,6.470265716E-2,1.037530413E1,-1.881750576E-1,1.037721215E1
1.323059358E1,4.189709817E-1,9.987395167E0,1.134453392E-1,9.996822933E0
1.324064658E1,5.446027954E-1,9.526250997E0,-1.020748254E-1,9.542351362E0
1.325069958E1,1.209517023E-1,8.819517336E0,-5.342390442E-1,8.836511004E0
1.326075258E1,-3.141666578E-1,7.765174892E0,1.796654073E0,7.976503473E0
1.327080558E1,-5.321385781E-1,6.049362084E0,7.275009236E0,9.476482072E0
1.328085858E1,-5.326408540E-1,4.057661853E0,1.167382104E1,1.237038494E1
1.329091158E1,-1.722317836E-1,1.928102989E0,8.639717209E0,8.853923333E0
1.330096458E1,-2.840916502E-1,8.957390589E-1,6.433042341E-1,1.138813797E0
1.331101758E1,-3.836375731E-1,9.648122174E-1,-3.710412673E0,3.852947262E0
1.332107058E1,-2.096191728E-1,5.548089641E-1,-3.882838876E0,3.927873588E0
1.333112258E1,1.342494401E-1,-3.230904152E0,-1.830606515E0,3.715896226E0
1.334117558E1,3.726331717E0,-1.574841818E1,-1.022928863E0,1.621556680E1
1.335122858E1,7.712212567E0,-3.622377929E1,-1.404278421E0,3.706227741E1
1.336128158E1,9.898154962E0,-5.600509930E1,-2.918704351E0,5.694790123E1
1.337133458E1,7.651788025E0,-6.184743603E1,4.257907355E-1,6.232043406E1
1.338138758E1,3.145790911E0,-5.105863552E1,-1.396474142E0,5.117450930E1
1.339144058E1,-1.265167313E0,-2.919274104E1,-2.444768811E0,2.932223853E1
1.340149358E1,-3.673225258E0,-1.641723674E1,-1.789038075E0,1.691800530E1
1.341154658E1,-3.603384653E0,-9.554454457E0,-2.378999915E0,1.048482816E1
1.342159958E1,-2.103544309E0,-5.892711083E0,-3.288036711E0,7.068247873E0
1.343165258E1,1.264964269E0,-6.179259734E0,-3.759504141E0,7.342837111E0
1.344170558E1,5.446726989E0,-8.967160116E0,-3.830829062E0,1.116924558E1
1.345175858E1,9.442294335E0,-1.094051003E1,-3.159816628E0,1.479311067E1
1.346181158E1,1.332127405E1,-9.969727221E0,5.967130351E-1,1.664956064E1
1.347186358E1,1.257928928E1,-5.367818813E0,6.172436618E0,1.500503154E1
1.348191658E1,6.640400396E0,-1.726617878E0,6.915974407E0,9.742013586E0
1.349196958E1,3.604202386E0,2.498404151E-1,5.903928967E0,6.921637979E0
1.350202258E1,1.423822739E0,2.417359988E0,6.712341614E0,7.275055357E0
1.351207558E1,-2.632211103E-1,3.905617290E0,7.030405587E0,8.046721971E0
1.352212858E1,-1.212628253E0,5.220398812E0,6.357664715E0,8.315222888E0
1.353218158E1,-1.651291122E0,6.516447610E0,5.387666602E0,8.614975522E0
1.354223458E1,-2.081309980E0,7.978965468E0,4.343344531E0,9.319891785E0
1.355228758E1,-2.384245452E0,9.584348347E0,2.898647232E0,1.029303237E1
1.356234058E1,-1.843960825E0,1.107254718E1,9.280232906E-1,1.126333519E1
1.357239358E1,-7.442640869E-1,1.200677319E1,-9.868731773E-1,1.207022992E1
1.358244658E1,2.671739743E-1,1.233162111E1,-2.343029598E0,1.255508059E1
1.359249958E1,1.219065088E0,1.260092983E1,-2.938478465E0,1.299631516E1
1.360255258E1,1.915542585E0,1.270240942E1,-2.864211810E0,1.316146716E1
1.361260458E1,2.095218751E0,1.253689463E1,-2.246785598E0,1.290781601E1
1.362265758E1,1.794717621E0,1.218007648E1,-1.901054939E0,1.245749912E1
1.363271058E1,1.230510135E0,1.174343799E1,-1.789170806E0,1.194251327E1
1.364276358E1,4.987231294E-1,1.128020636E1,-1.628164215E0,1.140801030E1
1.365281658E1,-1.641053963E-1,1.091595874E1,-1.460745567E0,1.101448426E1
1.366286958E1,-6.223805577E-1,1.064148693E1,-1.221248292E0,1.072940115E1
1.367292258E1,-8.834664841E-1,1.047789821E1,-8.664801764E-1,1.055071807E1
1.368297558E1,-1.105826594E0,1.044355166E1,-3.991917515E-1,1.050951844E1
1.369302858E1,-1.523014905E0,1.076300493E1,3.801871312E-1,1.087687418E1
1.370308158E1,-1.682607055E0,1.122252475E1,1.312066076E0,1.142356099E1
1.371313458E1,-9.371573724E-1,1.145726590E1,1.813579423E0,1.163770923E1
1.372318758E1,3.399498821E-1,1.166827554E1,1.858519953E0,1.182025027E1
1.373324058E1,1.842933615E0,1.180026357E1,1.427665529E0,1.202833544E1
1.374329258E1,3.419976794E0,1.174840578E1,6.274307978E-1,1.225214059E1
1.375334558E1,4.368597486E0,1.148517115E1,-5.362165725E-1,1.229964750E1
1.376339858E1,4.272169883E0,1.089746166E1,-1.582945358E0,1.181151227E1
1.377345158E1,2.835108463E0,1.006734415E1,-1.631742711E0,1.058545429E1
1.378350458E1,1.023363896E0,9.017422197E0,-6.637338209E-1,9.099545007E0
1.379355758E1,-1.044105432E0,7.809284533E0,1.283893021E0,7.982697687E0
1.380361058E1,-2.480837946E0,5.685374663E0,8.927786720E0,1.087121970E1
1.381366358E1,-1.866391475E0,1.540723783E0,1.840120637E1,1.855967787E1
1.382371692E1,-4.801262793E-1,1.284929148E0,7.722797197E0,7.843670104E0
1.383376992E1,-1.602607205E0,2.887032908E0,-1.340674748E0,3.563806622E0
1.384382292E1,-2.668485036E0,3.502909607E0,-2.219269186E0,4.931160495E0
1.385387592E1,-3.134989935E0,3.085177504E0,-2.287781011E0,4.957864871E0
1.386392892E1,-2.523246047E0,-3.142217678E-1,-2.293546951E0,3.424304827E0
1.387398192E1,-5.668875575E-3,-8.326111738E0,-1.954700219E0,8.552486291E0
1.388403392E1,2.380045981E0,-2.040726444E1,-1.706649637E0,2.061634579E1
1.389408692E1,5.461223406E0,-3.575660314E1,-6.723289356E0,3.679079027E1
1.390413992E1,7.983883561E0,-4.776292025E1,-7.181080733E0,4.895515159E1
1.391419292E1,8.346251303E0,-4.616662570E1,-3.264660128E0,4.702845144E1
1.392424592E1,8.883309875E0,-3.426154728E1,-6.584731979E0,3.600174317E1
1.393429892E1,4.629836463E0,-2.066998218E1,-4.611836979E0,2.167838991E1
1.394435192E1,2.233518850E0,-1.300235989E1,1.784728092E0,1.331297200E1
1.395440492E1,2.372839580E0,-7.623258290E0,1.034979975E1,1.307144940E1
1.396445792E1,7.376540288E0,-7.856539391E0,8.248813301E0,1.357134771E1
1.397451092E1,9.521853890E0,-1.237553136E1,4.628304347E-1,1.562157770E1
1.398456392E1,8.018346466E0,-1.503440299E1,-5.914411124E-1,1.704925089E1
1.399461692E1,6.451387396E0,-1.482789336E1,5.212208033E-2,1.617063813E1
1.400466992E1,4.840680628E0,-1.258425824E1,2.122352171E-1,1.348483549E1
1.401472292E1,3.312372823E0,-9.646487292E0,5.318556825E-1,1.021319741E1
1.402477492E1,1.894160487E0,-7.071334342E0,1.423691761E0,7.457781947E0
1.403482792E1,5.731964108E-1,-5.215677186E0,2.541436150E0,5.830157831E0
1.404488092E1,-2.239371036E-1,-3.198726924E0,3.181581134E0,4.517129650E0
1.405493392E1,-5.742493482E-1,-1.459518821E0,3.110387775E0,3.483456561E0
1.406498692E1,-6.950360128E-1,2.428956771E-1,2.632521737E0,2.733540573E0
1.407503992E1,-5.981371245E-1,2.041047807E0,2.054664803E0,2.957243923E0
1.408509292E1,-5.782486975E-1,3.978700469E0,1.566105376E0,4.314755500E0
1.409514592E1,-8.598744307E-1,5.927127795E0,9.885969365E-1,6.070218434E0
1.410519892E1,-1.219747019E0,7.821667766E0,2.051671028E-1,7.918861217E0
1.411525192E1,-1.549640787E0,9.583182997E0,-5.609608197E-1,9.723860342E0
1.412530492E1,-1.559368653E0,1.086982421E1,-1.025338501E0,1.102887247E1
1.413535792E1,-1.214037871E0,1.152992340E1,-1.144364423E0,1.165000393E1
1.414541092E1,-4.267589248E-1,1.175057276E1,-1.219579496E0,1.182139829E1
1.415546292E1,7.578125972E-1,1.195016513E1,-9.615594113E-1,1.201271506E1
1.416551592E1,2.045905527E0,1.236368139E1,-3.358582199E-1,1.253631316E1
1.417556892E1,3.503220387E0,1.298495624E1,-2.091771233E-1,1.345085115E1
1.418562192E1,4.801402541E0,1.338722363E1,-4.481118965E-1,1.422926657E1
1.419567492E1,5.590380213E0,1.357671317E1,-1.051730493E0,1.472024553E1
1.420572792E1,5.972854775E0,1.348595503E1,-1.485193360E0,1.482402700E1
1.421578092E1,5.864171408E0,1.328234563E1,-2.117740472E0,1.467290143E1
1.422583392E1,5.364455495E0,1.289260064E1,-2.455894309E0,1.417843259E1
1.423588692E1,4.638244175E0,1.235493045E1,-2.275857369E0,1.339168183E1
1.424593992E1,3.821279097E0,1.190099589E1,-1.860754759E0,1.263717870E1
1.425599292E1,2.728132483E0,1.149306255E1,-1.078496123E0,1.186154912E1
1.426604592E1,8.403536475E-1,1.133563680E1,6.700534916E-1,1.138647564E1
1.427609892E1,-1.990924305E0,1.156775489E1,3.556706915E0,1.226486432E1
1.428615092E1,-3.853011937E0,1.130939449E1,3.960489900E0,1.258704036E1
1.429620392E1,-4.280261260E0,1.066141073E1,2.695670496E0,1.180054891E1
1.430625692E1,-4.405619132E0,1.030280334E1,2.310439557E0,1.144095133E1
1.431630992E1,-4.277983477E0,9.926039164E0,1.813862429E0,1.095981264E1
1.432636292E1,-3.654075042E0,9.385289245E0,5.878843242E-1,1.008868310E1
1.433641592E1,-3.474959039E0,8.736309119E0,7.231280833E-1,9.429811852E0
1.434646892E1,-3.752574021E0,7.912682016E0,2.129239022E0,9.012547214E0
1.435652192E1,-3.401551925E0,7.234089836E0,2.497111917E0,8.374853979E0
1.436657492E1,-3.009524474E0,6.592460244E0,4.396263002E0,8.476136975E0
1.437662792E1,-2.702956712E0,5.711615213E0,6.008262005E0,8.719388490E0
1.438668092E1,-2.546562404E0,4.343140463E0,5.619329778E0,7.544847004E0
1.439673392E1,-2.547708166E0,3.811163707E0,2.260809560E0,5.111462175E0
1.440678692E1,-2.679576328E0,4.786650016E0,-3.192537646E0,6.347002781E0
1.441683892E1,-1.790517713E0,3.815941467E0,-4.548651967E0,6.201419005E0
1.442689192E1,9.813113058E-1,-1.477054036E0,-3.833799448E0,4.224059506E0
1.443694492E1,4.781222631E0,-1.367662806E1,-2.954068311E0,1.478637090E1
1.444699792E1,9.097809134E0,-2.866158699E1,-3.358683940E0,3.025784952E1
1.445705092E1,1.537753748E1,-4.465959240E1,-9.650532981E0,4.820871953E1
1.446710392E1,1.987963041E1,-5.397259310E1,-8.907664112E0,5.820298095E1
1.447715692E1,1.728324329E1,-4.734638799E1,-3.595824203E0,5.053039587E1
1.448720992E1,9.596598263E0,-2.853734535E1,-5.258219773E0,3.056343654E1
1.449726292E1,4.710440916E0,-1.605825980E1,-3.833552696E0,1.716834552E1
1.450731592E1,2.162682756E0,-9.816831887E0,-5.601129735E-1,1.006782556E1
1.451736892E1,-5.117804736E-2,-6.426072460E0,3.607252586E0,7.369484221E0
1.452742192E1,-2.994186643E0,-7.019694657E0,1.502962815E1,1.685618548E1
1.453747492E1,-1.291349245E0,-1.078508519E1,1.531992954E1,1.877993308E1
1.454752792E1,1.541459363E0,-1.136369758E1,3.281273822E0,1.192797039E1
1.455757992E1,1.444857074E0,-1.021556522E1,3.090089750E-1,1.032186375E1
1.456763292E1,1.709287316E0,-8.961553806E0,-6.368600909E-1,9.145310302E0
1.457768592E1,2.310752675E0,-7.686495343E0,-1.104015126E0,8.101891013E0
1.458773892E1,2.711301273E0,-6.373910034E0,-7.306470180E-1,6.965036165E0
1.459779192E1,2.607507348E0,-4.834972576E0,6.761259712E-2,5.493689638E0
1.460784492E1,2.254611511E0,-3.013667226E0,9.977490715E-1,3.893708570E0
1.461789792E1,1.754276085E0,-1.122691133E0,1.878649578E0,2.804860817E0
1.462795092E1,1.177017760E0,1.022460501E0,2.530398946E0,2.972156643E0
1.463800392E1,7.488985900E-1,3.380209295E0,3.153223307E0,4.682892397E0
1.464805692E1,3.817333908E-1,5.848858135E0,3.679105511E0,6.920309186E0
1.465810992E1,1.962622685E-1,8.000406039E0,3.935363245E0,8.918077121E0
1.466816292E1,1.638666838E-1,1.003972541E1,3.615173224E0,1.067203898E1
1.467821592E1,5.784571508E-1,1.146169809E1,2.333537228E0,1.171112854E1
1.468826792E1,1.235232639E0,1.217148224E1,2.465455091E-1,1.223648497E1
1.469832092E1,1.825328965E0,1.244594353E1,-1.627946699E0,1.268398780E1
1.470837392E1,2.401165540E0,1.245438457E1,-2.442328184E0,1.291674332E1
1.471842692E1,2.735236558E0,1.231282582E1,-2.478764523E0,1.285423946E1
1.472847992E1,2.594890226E0,1.207038505E1,-2.178962574E0,1.253696648E1
1.473853292E1,2.159175450E0,1.183301850E1,-1.627339758E0,1.213798172E1
1.474858592E1,1.680686099E0,1.173164532E1,-9.902973068E-1,1.189272452E1
1.475863892E1,1.040668292E0,1.178618347E1,-4.187752461E-1,1.183944611E1
1.476869192E1,2.504466983E-1,1.178125193E1,1.011743816E-1,1.178434796E1
1.477874492E1,-5.536529331E-1,1.160388132E1,2.807599068E-1,1.162047415E1
1.478879792E1,-1.195489772E0,1.139393354E1,2.385862792E-1,1.145896333E1
1.479885092E1,-1.419204170E0,1.121357968E1,6.953508854E-2,1.130324488E1
1.480890392E1,-1.334387529E0,1.104177211E1,-1.498629677E-1,1.112311918E1
1.481895592E1,-1.243992353E0,1.100827224E1,-2.210732836E-1,1.108054368E1
1.482900883E1,-1.180347384E0,1.117955824E1,-2.379643181E-2,1.124172178E1
1.483906183E1,-9.176648750E-1,1.159900241E1,5.113483644E-1,1.164647770E1
1.484911483E1,-8.520032745E-2,1.192146816E1,1.062554859E0,1.196903025E1
1.485916783E1,9.947675031E-1,1.171621569E1,7.621605867E-1,1.178304550E1
1.486922083E1,1.880913328E0,1.143995463E1,-3.791071504E-1,1.159974651E1
1.487927383E1,2.682522447E0,1.120197880E1,-1.456939030E0,1.161046627E1
1.488932683E1,2.750012180E0,1.008593712E1,-1.694378085E0,1.059054351E1
1.489937983E1,1.724751593E0,7.813793321E0,8.393093348E-1,8.045779905E0
1.490943283E1,8.886672901E-1,5.398126101E0,6.269551268E0,8.320863421E0
1.491948583E1,4.452338970E-1,3.881798657E0,7.978554994E0,8.883914330E0
1.492953883E1,1.161587396E0,3.657422866E0,3.469708532E0,5.173480897E0
1.493959183E1,1.669758384E0,3.546855526E0,-1.818609198E0,4.321529428E0
1.494964383E1,1.513095104E0,2.791488234E0,-3.012817041E0,4.377091486E0
1.495969683E1,1.500464826E0,1.464553274E0,-2.794627604E0,3.493745044E0
1.496974983E1,2.227247711E0,-6.260157716E-1,-1.851021484E0,2.962905440E0
1.497980283E1,3.127238865E0,-6.981069705E0,-3.176651931E-1,7.656100073E0
1.498985583E1,6.440679975E0,-1.889388574E1,1.149140428E0,1.999454427E1
1.499990883E1,8.615297483E0,-2.911853519E1,1.394026498E0,3.039828535E1
1.500996183E1,8.734224586E0,-3.392835422E1,-6.208959496E-1,3.504005438E1
1.502001483E1,7.118888578E0,-3.522446909E1,-2.352254165E0,3.601353769E1
1.503006783E1,2.999143620E0,-3.198127818E1,-1.081378216E0,3.213979458E1
1.504012083E1,-9.405752161E-1,-2.504941104E1,-2.425588775E-1,2.506823708E1
1.505017383E1,-1.509904279E0,-1.771109576E1,-1.256821582E0,1.781971729E1
1.506022683E1,2.098612475E-1,-1.311418438E1,-2.614849112E0,1.337397883E1
1.507027983E1,2.348587669E0,-1.063000534E1,-2.916869495E0,1.127035958E1
1.508033283E1,4.140671558E0,-9.839876933E0,-2.021044482E0,1.086521789E1
1.509038483E1,5.391345670E0,-9.859564508E0,-6.098435426E-1,1.125386732E1
1.510043783E1,5.809140923E0,-9.655026566E0,-9.864135861E-2,1.126833556E1
1.511049083E1,5.799074357E0,-9.337481241E0,-8.066269076E-1,1.102127335E1
1.512054383E1,5.742739357E0,-9.033284524E0,-1.543752640E0,1.081491825E1
1.513059683E1,5.684125113E0,-8.264623003E0,-1.244759946E0,1.010755653E1
1.514064983E1,5.405414656E0,-7.035903139E0,-9.888924401E-2,8.873117810E0
1.515070283E1,4.811960859E0,-5.412477508E0,1.268478591E0,7.352476998E0
1.516075583E1,4.077795571E0,-3.524122721E0,2.257004192E0,5.843109240E0
1.517080883E1,3.190246122E0,-1.610179934E0,2.656371360E0,4.452713616E0
1.518086183E1,2.117930214E0,2.681579876E-1,2.609322324E0,3.371364722E0
1.519091483E1,1.218642480E0,2.136669078E0,2.339930574E0,3.394954983E0
1.520096783E1,4.938591962E-1,3.855768022E0,1.933317536E0,4.341492905E0
1.521102083E1,-1.143822093E-1,5.542485085E0,1.441282525E0,5.727959456E0
1.522107383E1,-6.481015091E-1,7.196819099E0,9.185016847E-1,7.284084434E0
1.523112583E1,-1.012566062E0,8.571194859E0,4.744536396E-1,8.643828873E0
1.524117883E1,-1.199919696E0,9.769617959E0,1.888791172E-1,9.844842186E0
1.525123183E1,-1.213045306E0,1.082477960E1,-9.419042151E-2,1.089294286E1
1.526128483E1,-1.159676380E0,1.126656715E1,-4.277226555E-1,1.133416654E1
1.527133783E1,-1.028023177E0,1.125526799E1,-4.675866330E-1,1.131178705E1
1.528139083E1,-8.300926611E-1,1.129639029E1,-5.485834702E-1,1.134012483E1
1.529144383E1,-5.601525883E-1,1.153493797E1,-6.726274359E-1,1.156810238E1
1.530149683E1,-3.795212795E-1,1.165005562E1,-5.864675073E-1,1.167098010E1
1.531154983E1,-2.944391206E-1,1.191812239E1,-3.549236512E-1,1.192704098E1
1.532160283E1,-4.121494006E-1,1.201078906E1,-1.435807192E-1,1.201871609E1
1.533165583E1,-5.417668227E-1,1.184039067E1,-4.841436088E-2,1.185287756E1
1.534170883E1,-6.559834097E-1,1.175560721E1,-3.551189482E-2,1.177394905E1
1.535176083E1,-7.495602024E-1,1.174262172E1,6.954272646E-2,1.176672603E1
1.536181383E1,-7.870699447E-1,1.187776023E1,1.849965842E-1,1.190524636E1
1.537186683E1,-7.683866289E-1,1.211320421E1,2.348697523E-1,1.213982282E1
1.538191983E1,-6.849610410E-1,1.227919731E1,4.098997575E-1,1.230511585E1
1.539197283E1,-5.930189470E-1,1.247839324E1,6.977541641E-1,1.251194749E1
1.540202583E1,-4.068211254E-1,1.261933452E1,8.747867310E-1,1.265615894E1
1.541207883E1,-3.994130686E-2,1.260175779E1,9.232595640E-1,1.263559666E1
1.542213183E1,4.686556136E-1,1.221895462E1,6.632152460E-1,1.224591134E1
1.543218483E1,8.574984147E-1,1.154301999E1,-4.098898172E-4,1.157482675E1
1.544223783E1,9.191635164E-1,1.058843280E1,-1.121842629E0,1.068729628E1
1.545229083E1,8.094879502E-1,9.455568684E0,-1.605944211E0,9.625076971E0
1.546234383E1,7.993104328E-1,8.496401369E0,-1.255398370E0,8.625761326E0
1.547239683E1,7.354779875E-1,7.782546970E0,-1.200200654E0,7.908820823E0
1.548244883E1,6.989324512E-1,7.575973027E0,-2.002626337E0,7.867298527E0
1.549250183E1,1.036443533E0,7.155827193E0,-2.598689162E0,7.683310704E0
1.550255483E1,1.639121751E0,5.893242010E0,-2.922374648E0,6.779181005E0
1.551260783E1,1.972162051E0,4.061375420E0,-3.216294299E0,5.543351195E0
1.552266083E1,2.093153515E0,1.391941381E0,-3.026890120E0,3.934571926E0
1.553271383E1,1.836091204E0,-6.536626936E0,-2.120188701E0,7.112940513E0
1.554276683E1,4.075821551E0,-2.204243362E1,2.101546864E-2,2.241610231E1
1.555281983E1,5.212431396E0,-3.851267888E1,-6.020035958E-1,3.886847416E1
1.556287283E1,5.850147446E0,-5.350785640E1,-3.512720650E0,5.394120993E1
1.557292583E1,6.578494170E0,-6.133346110E1,-4.004731103E0,6.181511067E1
1.558297883E1,7.184692558E0,-5.208972417E1,-5.223049940E0,5.284164477E1
1.559303183E1,4.083742482E0,-2.990219307E1,-4.176270869E0,3.046734878E1
1.560308483E1,1.917855744E0,-1.720279145E1,-9.007284880E-2,1.730960189E1
1.561313783E1,1.992855640E0,-1.014746737E1,6.336015984E0,1.212797041E1
1.562318983E1,4.787077448E0,-5.036910262E0,2.148363861E1,2.257948855E1
1.563324283E1,6.634473073E0,-6.150448163E0,1.197869369E1,1.501110749E1
1.564329583E1,5.032043624E0,-7.811770769E0,1.002788129E0,9.346165503E0
1.565334883E1,2.945278777E0,-7.658459698E0,1.172868868E-1,8.206121388E0
1.566340183E1,1.413007437E0,-7.180172076E0,-8.345801798E-1,7.365323152E0
1.567345483E1,8.097928825E-1,-6.282223939E0,-8.638137730E-1,6.392830075E0
1.568350783E1,5.889662053E-1,-4.930824813E0,-6.977657855E-1,5.014657677E0
1.569356083E1,4.986770095E-1,-3.242391592E0,-4.474920551E-1,3.310895820E0
1.570361383E1,3.380328725E-1,-1.165324352E0,-1.518802206E-1,1.222830597E0
1.571366683E1,3.697676852E-2,1.249867489E0,8.927883346E-2,1.253597516E0
1.572371983E1,-1.687119059E-1,3.885875335E0,1.666293104E-1,3.893103666E0
1.573377283E1,-3.057396140E-1,6.299462700E0,-3.638486585E-2,6.306982708E0
1.574382583E1,-3.360988328E-1,8.548453867E0,-4.603395573E-1,8.567434765E0
1.575387783E1,-1.532078857E-1,1.039548404E1,-1.052806381E0,1.044978289E1
1.576393083E1,1.093696654E-1,1.149034477E1,-1.890733434E0,1.164537923E1
1.577398383E1,6.939695538E-1,1.174127452E1,-2.428773168E0,1.200991508E1
1.578403683E1,1.387498081E0,1.145236827E1,-2.115505081E0,1.172848037E1
1.579408983E1,2.214798989E0,1.165376860E1,-1.733336914E0,1.198833241E1
1.580414283E1,2.826716247E0,1.210861415E1,-1.281210319E0,1.250001445E1
1.581419583E1,3.588125466E0,1.253604444E1,-7.992021132E-1,1.306391131E1
1.582424858E1,4.194117156E0,1.282871630E1,-5.209202564E-1,1.350695889E1
1.583430158E1,4.686847108E0,1.316002772E1,-1.539712397E-1,1.397056093E1
1.584435458E1,4.977078043E0,1.327149086E1,-1.904391360E-1,1.417533218E1
1.585440758E1,4.842868656E0,1.302656502E1,-7.927345079E-1,1.392024429E1
1.586446058E1,4.176450671E0,1.272274136E1,-1.043227472E0,1.343127736E1
1.587451258E1,3.044891066E0,1.234351200E1,-9.240828520E-1,1.274706159E1
1.588456558E1,1.875893493E0,1.187245095E1,-7.922006571E-1,1.204581462E1
1.589461858E1,7.705688828E-1,1.160900582E1,-4.763966328E-1,1.164430102E1
1.590467158E1,-2.921548145E-1,1.161277845E1,1.172109461E-1,1.161704421E1
1.591472458E1,-1.032224328E0,1.175512073E1,7.662898904E-1,1.182520827E1
1.592477758E1,-1.470112953E0,1.193433555E1,1.388264651E0,1.210441555E1
1.593483058E1,-1.724652629E0,1.215500479E1,1.939895069E0,1.242906919E1
1.594488358E1,-1.796926553E0,1.233377756E1,1.917402000E0,1.261060840E1
1.595493658E1,-1.749325394E0,1.216214424E1,7.645216924E-1,1.231106759E1
1.596498958E1,-1.800510166E0,1.103699961E1,-9.729439402E-1,1.122514219E1
1.597504258E1,-1.539673038E0,9.299413528E0,-1.107923990E0,9.490899883E0
1.598509558E1,-2.029452486E0,7.871487797E0,1.651343163E0,8.294934103E0
1.599514758E1,-3.117756144E0,6.190399849E0,6.896395006E0,9.777613090E0
1.600520058E1,-3.808816634E0,3.672702225E0,1.276126048E1,1.381468765E1
1.601525358E1,-2.977581135E0,2.212331464E0,7.011715547E0,7.932499911E0
1.602530658E1,-2.095899075E0,3.107188178E0,-2.472643073E0,4.490141988E0
1.603535958E1,-2.120964334E0,3.651741711E0,-4.675802010E0,6.300542173E0
1.604541258E1,-2.302388526E0,3.831883900E0,-5.153435329E0,6.822186075E0
1.605546558E1,-2.276300588E0,3.874375032E0,-4.419027382E0,6.302390757E0
1.606551858E1,-1.435875897E0,3.549255808E0,-4.304931833E0,5.761197312E0
1.607557158E1,3.521754599E-1,2.046106233E0,-3.779156048E0,4.311913579E0
1.608562458E1,2.545427167E0,-6.538325552E0,-3.260988661E0,7.737114936E0
1.609567758E1,8.240202107E0,-2.744923699E1,-3.091275566E0,2.882564009E1
1.610573058E1,1.373580539E1,-5.132446866E1,-4.145032704E0,5.329216386E1
1.611578358E1,1.752074433E1,-6.729613353E1,-4.342073931E0,6.967495731E1
1.612583658E1,1.770878845E1,-6.981793005E1,-6.117744686E0,7.228811344E1
1.613588958E1,9.496764657E0,-4.490434281E1,-6.079586341E0,4.629848715E1
1.614594158E1,2.428179968E0,-2.191570574E1,-3.364132376E0,2.230496812E1
1.615599458E1,-3.521497321E-1,-1.123497932E1,-7.750659033E-1,1.126718673E1
1.616604758E1,-1.774619426E0,-4.467771526E0,3.924708449E0,6.205932075E0
1.617610058E1,-2.175392849E0,2.204985023E-2,2.100434468E1,2.111670703E1
1.618615358E1,2.037137189E0,-1.732061636E0,2.078635112E1,2.095763246E1
1.619620658E1,3.716214865E0,-6.740922804E0,3.579747283E0,8.489103827E0
1.620625958E1,1.482546180E0,-7.639310067E0,1.061027712E0,7.853838633E0
1.621631258E1,-1.277568381E-1,-6.880872402E0,2.559318982E-2,6.882105916E0
1.622636558E1,-7.305169174E-1,-5.422360471E0,-3.042330058E-1,5.479799793E0
1.623641858E1,-5.720162965E-1,-3.605062219E0,1.197813821E-1,3.652125932E0
1.624647158E1,-4.608066402E-1,-1.799394663E0,5.874674177E-1,1.948148321E0
1.625652458E1,-4.983266151E-1,1.966670054E-1,9.337944925E-1,1.076559093E0
1.626657758E1,-5.509036819E-1,2.436545287E0,1.188356534E0,2.766304223E0
1.627662958E1,-6.330472677E-1,5.040631430E0,1.236125947E0,5.228453061E0
1.628668258E1,-6.789046412E-1,7.397770359E0,1.061924529E0,7.504372159E0
1.629673558E1,-5.059874909E-1,9.685451383E0,8.888001680E-1,9.739299645E0
1.630678858E1,-2.102304261E-1,1.138275600E1,7.269796443E-1,1.140788457E1
1.631684158E1,2.192076563E-1,1.229795284E1,2.075937339E-1,1.230165807E1
1.632689458E1,1.375006090E0,1.271724849E1,8.199201504E-2,1.279162904E1
1.633694758E1,2.790345981E0,1.304141227E1,3.339496887E-1,1.334076412E1
1.634700058E1,4.187005772E0,1.347567446E1,-7.096063972E-2,1.411133781E1
1.635705358E1,5.539497743E0,1.381491588E1,-7.666225970E-1,1.490388024E1
1.636710658E1,6.231926774E0,1.398852439E1,-1.457647128E0,1.538312260E1
1.637715958E1,6.719653557E0,1.386985281E1,-1.960179645E0,1.553605050E1
1.638721258E1,6.844326720E0,1.354823022E1,-2.674520532E0,1.541273533E1
1.639726458E1,6.365084832E0,1.313329074E1,-3.298844705E0,1.496262033E1
1.640731758E1,5.383260725E0,1.268104370E1,-3.253758579E0,1.415539862E1
1.641737058E1,4.244694402E0,1.224151434E1,-2.680906277E0,1.323100005E1
1.642742358E1,2.989853271E0,1.183947968E1,-1.895496576E0,1.235740300E1
1.643747658E1,1.577186143E0,1.143416589E1,-7.635855532E-1,1.156765873E1
1.644752958E1,-4.384856254E-1,1.148008758E1,1.439281608E0,1.157826464E1
1.645758258E1,-2.926051962E0,1.184561224E1,4.215037909E0,1.290917712E1
1.646763558E1,-3.938978578E0,1.164439551E1,4.167774864E0,1.297990163E1
1.647768858E1,-3.851934003E0,1.126261911E1,3.240987675E0,1.233644948E1
1.648774158E1,-3.080284847E0,1.080657722E1,2.301959925E0,1.147036553E1
1.649779458E1,-1.950183391E0,1.005436684E1,5.710320640E-1,1.025765984E1
1.650784758E1,-1.509392940E0,9.470823485E0,-8.154105949E-1,9.624949817E0
1.651790058E1,-1.869752747E0,8.810906727E0,-7.624102628E-1,9.039320887E0
1.652795258E1,-2.770887324E0,8.020100631E0,1.275672421E0,8.580627647E0
1.653800558E1,-3.433781193E0,6.925572027E0,5.477646480E0,9.474123291E0
1.654805858E1,-3.124304733E0,5.636674958E0,8.249309730E0,1.046826135E1
1.655811158E1,-2.326762790E0,5.910470831E0,3.469246602E0,7.237621330E0
1.656816458E1,-2.157368807E0,6.094265776E0,9.437370980E-1,6.533372424E0
1.657821758E1,-1.928237914E0,5.625783350E0,5.939367771E-2,5.947358015E0
1.658827058E1,-1.285965421E0,4.942575962E0,-1.289190014E0,5.267330927E0
1.659832358E1,2.220506456E-1,3.238297956E0,-2.148099216E0,3.892327116E0
1.660837658E1,1.807164443E0,-9.642520541E-1,-2.582476587E0,3.296181226E0
1.661842958E1,5.744033346E0,-1.301064423E1,-2.037679226E0,1.436742562E1
1.662848258E1,1.151938789E1,-3.007755341E1,-2.365285855E0,3.229473786E1
1.663853558E1,1.646195157E1,-4.652749246E1,-4.433571162E0,4.955259788E1
