"Time (s)","Linear Acceleration x (m/s^2)","Linear Acceleration y (m/s^2)","Linear Acceleration z (m/s^2)","Absolute acceleration (m/s^2)"
1.536862500E-2,-2.590652749E-2,-4.620221302E-2,-6.565019846E-2,8.435485293E-2
2.534062497E-2,-8.816490233E-2,1.180333570E-2,-6.630917966E-2,1.109471768E-1
3.531262500E-2,-1.894176275E-2,6.020095892E-2,-3.104637623E-2,7.033365701E-2
4.528462497E-2,7.959127620E-2,4.266552463E-2,-1.331644893E-2,9.128223294E-2
5.525662500E-2,1.087919788E-1,2.312222958E-2,-4.932126403E-3,1.113312985E-1
6.522862497E-2,1.267607649E-1,2.900226273E-2,2.342570007E-2,1.321294296E-1
7.520062500E-2,1.838028386E-1,3.663324460E-2,8.739774764E-2,2.067942078E-1
8.517262497E-2,2.571770628E-1,7.771008074E-2,1.308834904E-1,2.988467606E-1
9.514462500E-2,2.302425948E-1,8.809415102E-2,7.101443410E-2,2.565448923E-1
1.051166250E-1,1.325131094E-1,2.249306917E-2,2.102074027E-2,1.360423973E-1
1.150886250E-1,4.901589319E-2,-4.432408735E-2,-3.173985600E-2,7.331167004E-2
1.250606250E-1,3.518386602E-2,-8.691951849E-2,-2.505356491E-2,9.705971480E-2
1.350326250E-1,1.183841899E-2,-1.346793567E-1,4.515804648E-2,1.425409641E-1
1.450046250E-1,1.328341216E-2,-1.350901967E-1,6.138056159E-2,1.489744395E-1
1.549766250E-1,6.539043590E-2,-1.439637849E-1,4.086326659E-2,1.633134625E-1
1.649486250E-1,1.148673820E-1,-9.728239261E-2,1.020163715E-2,1.508723062E-1
1.749204583E-1,2.038921174E-1,-2.991939850E-2,-1.825500727E-3,2.060837170E-1
1.848924583E-1,2.524960743E-1,2.035868928E-2,-2.618032336E-2,2.546647857E-1
1.948644583E-1,2.118475467E-1,6.321892619E-2,-6.421236813E-2,2.302156465E-1
2.048364583E-1,1.821191329E-1,1.262516917E-1,-8.046704292E-2,2.357579547E-1
2.148084583E-1,1.575657973E-1,1.596399508E-1,-1.181687200E-1,2.535266076E-1
2.247804583E-1,2.185320836E-1,1.559225104E-1,-1.118198133E-1,2.908122615E-1
2.347524583E-1,2.763682093E-1,1.385616155E-1,-1.374528372E-1,3.383370965E-1
2.447244583E-1,2.191803937E-1,1.175259648E-1,-1.877570182E-1,3.116169046E-1
2.546964583E-1,1.474897291E-1,1.207663456E-1,-1.381480712E-1,2.354200925E-1
2.646684583E-1,1.388573384E-1,1.513300341E-1,-6.496256590E-3,2.054856224E-1
2.746404583E-1,1.390960510E-1,1.312021637E-1,4.834010124E-2,1.972269874E-1
2.846124583E-1,1.655297050E-1,9.768424250E-2,6.787564874E-2,2.038366948E-1
2.945844583E-1,1.710841213E-1,5.659023017E-2,8.162829995E-2,1.978267173E-1
3.045564583E-1,1.633000155E-1,2.915575214E-2,2.987927198E-3,1.659092543E-1
3.145284583E-1,1.138654616E-1,1.136135928E-2,-1.462189829E-1,1.856728704E-1
3.245004583E-1,6.006859258E-2,-1.253504165E-2,-1.930446553E-1,2.025625879E-1
3.344714583E-1,1.517615587E-2,-7.304341793E-3,-1.660778815E-1,1.669297212E-1
3.444444583E-1,5.481077626E-2,3.974498659E-2,-6.100575507E-2,9.113499495E-2
3.544154583E-1,1.544815372E-1,5.517118402E-2,-3.569783628E-2,1.678771586E-1
3.643884583E-1,2.117972606E-1,3.773200952E-2,-1.483198875E-1,2.613055170E-1
3.743604583E-1,2.233957976E-1,1.376997359E-2,-2.956165123E-1,3.707889115E-1
3.843314583E-1,1.892388488E-1,2.512212351E-2,-4.020112789E-1,4.450343035E-1
3.943034583E-1,7.755483717E-2,-4.876358584E-3,-4.558465934E-1,4.624225863E-1
4.042754583E-1,-9.984968573E-2,-4.572215661E-2,-3.456394422E-1,3.626666505E-1
4.142474583E-1,-1.383676341E-1,-3.909755364E-2,-9.700413823E-2,1.734474667E-1
4.242194583E-1,-4.819260523E-2,-6.512906536E-2,5.590405941E-2,9.843569582E-2
4.341914583E-1,2.959568202E-2,-1.239340746E-1,1.991386235E-2,1.289655813E-1
4.441634583E-1,3.461376250E-2,-2.042819075E-1,-1.498226219E-1,2.556873644E-1
4.541354583E-1,-3.801538020E-2,-2.372009276E-1,-2.794548082E-1,3.685165383E-1
4.641074583E-1,-1.761483948E-1,-2.155511731E-1,-1.831605220E-1,3.332241618E-1
4.740794583E-1,-1.794231279E-1,-1.678077071E-1,1.120279741E-1,2.700043562E-1
4.840514583E-1,-7.063875049E-2,-2.003943130E-1,3.238801986E-1,3.873578408E-1
4.940234583E-1,-3.364195526E-2,-2.776503575E-1,3.177926624E-1,4.233363656E-1
5.039954583E-1,-8.059889764E-2,-3.102572094E-1,1.867764401E-1,3.710002114E-1
5.139674583E-1,-1.085417180E-1,-2.911849806E-1,3.922838509E-2,3.132233447E-1
5.239394583E-1,-1.699104390E-1,-2.749330102E-1,-1.433678806E-2,3.235170179E-1
5.339114583E-1,-2.228465979E-1,-2.618090077E-1,1.150328583E-1,3.625425785E-1
5.438834583E-1,-1.406302142E-1,-2.064245465E-1,3.070782244E-1,3.958345443E-1
5.538554583E-1,-5.003974065E-2,-1.767111162E-1,3.815846157E-1,4.234827189E-1
5.638274583E-1,-2.264305025E-2,-1.604392652E-1,2.679077268E-1,3.130942599E-1
5.737994583E-1,8.251883090E-4,-1.322371940E-1,1.069075674E-1,1.700487705E-1
5.837714583E-1,-2.502198994E-2,-8.739219278E-2,-4.499900222E-2,1.014317778E-1
5.937434583E-1,-5.165181801E-2,-6.039420940E-2,-1.398554581E-1,1.608568308E-1
6.037154583E-1,-5.603722975E-2,-1.573697694E-2,-7.068932891E-2,9.156857967E-2
6.136874583E-1,-1.058316797E-2,2.367172167E-2,2.783391595E-2,3.804051430E-2
6.236594583E-1,5.201551482E-2,5.000356100E-2,8.456126332E-2,1.111601419E-1
6.336314583E-1,8.465905800E-2,2.940944821E-2,5.051351130E-2,1.028770459E-1
6.436034583E-1,7.301637456E-2,2.877283260E-2,8.010685444E-4,7.848508496E-2
6.535754583E-1,4.696922153E-2,3.921690993E-2,2.462788761E-2,6.595912859E-2
6.635474583E-1,1.059639730E-1,7.617752552E-2,4.352374971E-2,1.375706936E-1
6.735194583E-1,1.523880878E-1,1.063449921E-1,8.090266049E-2,2.026736962E-1
6.834914583E-1,1.491323581E-1,1.435544068E-1,6.260146022E-2,2.162574178E-1
6.934634583E-1,1.175209947E-1,1.536012389E-1,3.354956925E-2,1.962908515E-1
7.034354583E-1,1.127023043E-1,1.916242205E-1,1.236452222E-2,2.226533913E-1
7.134074583E-1,8.547576785E-2,1.924800336E-1,1.802755058E-2,2.113756438E-1
7.233794583E-1,4.387122050E-2,1.764604899E-1,3.066806138E-2,1.844004297E-1
7.333514583E-1,2.669356272E-2,1.437521157E-1,4.331091106E-2,1.524895147E-1
7.433234583E-1,2.489305884E-2,1.353277398E-1,8.981907964E-2,1.643189843E-1
7.532954583E-1,1.544147328E-2,1.284625239E-1,1.434304458E-1,1.931666429E-1
7.632674583E-1,6.147616357E-3,1.525040819E-1,1.911758852E-1,2.446293263E-1
7.732394583E-1,-1.885741666E-2,1.477356045E-1,2.279303133E-1,2.722749323E-1
7.832114583E-1,-5.047828183E-2,1.580693156E-1,2.439674717E-1,2.950493056E-1
7.931834583E-1,-5.865458965E-2,1.498840908E-1,2.733526540E-1,3.172180244E-1
8.031554583E-1,-2.682731777E-2,1.513971309E-1,3.106713384E-1,3.466373851E-1
8.131274583E-1,2.850225270E-2,1.586981837E-1,3.786352801E-1,4.115363499E-1
8.230994583E-1,2.821530059E-2,1.367572378E-1,4.313192779E-1,4.533596417E-1
8.330714583E-1,3.870944470E-2,1.301145816E-1,4.665393966E-1,4.858880880E-1
8.430434583E-1,3.241374761E-2,1.346477086E-1,4.868783516E-1,5.061928345E-1
8.530154583E-1,1.677142248E-2,1.579080056E-1,4.789951354E-1,5.046311114E-1
8.629874583E-1,1.317450777E-2,1.680329711E-1,4.847745234E-1,5.132396960E-1
8.729594583E-1,2.143881619E-3,1.494407988E-1,4.549712652E-1,4.788903849E-1
8.829314583E-1,-1.693704486E-2,1.343375138E-1,4.085870576E-1,4.304379337E-1
8.929034583E-1,-2.013459474E-2,1.110345322E-1,4.141360652E-1,4.292350752E-1
9.028754583E-1,-6.162073597E-2,7.659077749E-2,4.607635170E-1,4.711329758E-1
9.128474583E-1,-1.352861515E-1,6.946287543E-2,5.358908826E-1,5.570515882E-1
9.228194583E-1,-2.312266812E-1,8.442246504E-2,6.644746631E-1,7.086039152E-1
9.327914583E-1,-3.930435504E-1,7.524138629E-2,8.829693246E-1,9.694221613E-1
9.427634583E-1,-6.699437101E-1,1.139603327E-1,1.209211214E0,1.387084457E0
9.527344583E-1,-8.331601104E-1,1.179009906E-1,1.588163413E0,1.797308944E0
9.627064583E-1,-8.020336273E-1,-2.230807789E-2,1.790038533E0,1.961630327E0
9.726784583E-1,-7.172739972E-1,-3.017189589E-1,1.793541600E0,1.955072323E0
9.826504583E-1,-6.203487964E-1,-5.493672529E-1,1.742019444E0,1.929059033E0
9.926224583E-1,-7.111228725E-1,-6.465680037E-1,1.680519599E0,1.935947325E0
1.002594458E0,-9.341248602E-1,-5.732861656E-1,1.827672967E0,2.131111156E0
1.012566458E0,-8.768048975E-1,-6.315291113E-1,2.112456343E0,2.372780573E0
1.022538458E0,-9.157390215E-1,-6.798350063E-1,2.218655813E0,2.494631678E0
1.032510458E0,-1.039926134E0,-8.796520530E-1,2.153697925E0,2.548263889E0
1.042482458E0,-1.142479719E0,-7.526667550E-1,2.045477073E0,2.460842052E0
1.052454458E0,-1.000288006E0,-3.526055226E-1,2.342580532E0,2.571495731E0
1.062426458E0,-6.936809206E-1,1.616620642E-1,2.709186920E0,2.801253578E0
1.072398458E0,-2.219981669E-1,6.753870293E-1,2.757585493E0,2.847755007E0
1.082370458E0,2.742735904E-1,1.090596643E0,2.501130123E0,2.742312698E0
1.092342458E0,6.218155704E-1,9.861596708E-1,2.081377223E0,2.385643863E0
1.102314458E0,8.268449713E-1,6.849723700E-1,1.626029397E0,1.948545959E0
1.112286458E0,8.265920793E-1,5.955001764E-1,1.459850358E0,1.780179203E0
1.122258458E0,7.303607967E-1,5.995408948E-1,1.569485067E0,1.831982411E0
1.132230458E0,5.068499552E-1,4.806572065E-1,1.711064869E0,1.848153461E0
1.142202458E0,1.551099667E-1,3.740056010E-1,1.940345889E0,1.982140626E0
1.152174458E0,-1.583148256E-1,2.284134395E-1,2.094738695E0,2.113094055E0
1.162146458E0,-3.421721895E-1,1.044461820E-1,2.056990240E0,2.087869646E0
1.172118458E0,-4.554728101E-1,-9.217930824E-2,1.914488332E0,1.970080729E0
1.182090375E0,-6.112316716E-1,-3.372527808E-1,1.723716490E0,1.859715605E0
1.192062375E0,-6.087238008E-1,-6.004565687E-1,1.572777634E0,1.790173803E0
1.202034375E0,-4.432037437E-1,-7.800090663E-1,1.444697884E0,1.700586863E0
1.212006375E0,-2.113826931E-1,-7.580385920E-1,1.344874803E0,1.558201972E0
1.221978375E0,-9.523652494E-3,-6.234732561E-1,1.225655338E0,1.375151122E0
1.231950375E0,1.452303649E-1,-4.007297154E-1,1.039418011E0,1.123417093E0
1.241922375E0,2.723052715E-1,-2.324876332E-1,7.246904594E-1,8.083173401E-1
1.251894375E0,2.467829061E-1,-1.952646969E-1,5.461913377E-1,6.303610727E-1
1.261866375E0,1.479208151E-1,-1.844387233E-1,5.350056142E-1,5.849181288E-1
1.271837375E0,3.805616453E-2,-2.819841675E-1,5.559748989E-1,6.245569875E-1
1.281809375E0,2.501614273E-2,-4.378811695E-1,6.505448413E-1,7.845854424E-1
1.291781375E0,1.397032844E-1,-5.494480906E-1,8.485970521E-1,1.020552384E0
1.301753375E0,3.645393974E-1,-5.688741490E-1,1.247739687E0,1.418929560E0
1.311725375E0,6.811621781E-1,-4.442625283E-1,1.614610369E0,1.807848929E0
1.321697375E0,8.967624678E-1,-2.556636572E-1,1.201460145E0,1.520872548E0
1.331669375E0,9.665476710E-1,-3.742093764E-1,-4.836056650E-2,1.037586527E0
1.341641375E0,9.485680676E-1,-6.802389027E-1,6.554021233E-1,1.338677813E0
1.351613375E0,1.176039009E0,-1.308502052E0,1.643714885E0,2.407705130E0
1.361585375E0,1.146658139E0,-2.101025621E0,6.846206599E-1,2.489545942E0
1.371557375E0,1.153107472E0,-3.031698285E0,8.592062402E-1,3.355456258E0
1.381529375E0,1.084350648E0,-3.650697983E0,6.266192043E-1,3.859541905E0
1.391501375E0,8.883148491E-1,-3.860770900E0,5.741030216E-1,4.003030039E0
1.401473375E0,8.313587295E-1,-3.695178337E0,6.399572879E-1,3.841229700E0
1.411445375E0,8.597966628E-1,-3.253159239E0,1.123139030E-1,3.366735771E0
1.421417375E0,9.078746626E-1,-2.675288857E0,-7.008484375E-1,2.910772303E0
1.431389375E0,7.185017663E-1,-1.981575630E0,-1.606140093E0,2.650013729E0
1.441361375E0,1.096784898E-1,-1.783670769E0,-1.885372707E0,2.597718427E0
1.451333375E0,-8.630716883E-1,-2.077664825E0,-1.736321332E0,2.841900004E0
1.461305375E0,-1.113252265E0,-1.462452662E0,-1.072759420E0,2.128123861E0
1.471277375E0,-6.623008145E-1,-7.134085491E-1,-1.470101112E-1,9.844826559E-1
1.481249375E0,1.281356645E-1,-4.964414728E-1,-1.470750153E-1,5.333891118E-1
1.491221375E0,7.548911089E-1,-5.421485728E-1,-5.435390407E-1,1.076670957E0
1.501193375E0,1.065792535E0,-5.119725546E-1,-6.884500015E-1,1.368207963E0
1.511165375E0,1.010558494E0,-5.512316376E-1,-1.115914795E0,1.603231305E0
1.521136375E0,6.851809694E-1,-6.680166140E-1,-1.516139749E0,1.792874479E0
1.531108375E0,4.490868101E-1,-7.592100817E-1,-1.870779811E0,2.068307523E0
1.541080375E0,5.338047788E-1,-6.324398151E-1,-2.070467488E0,2.229745115E0
1.551052375E0,6.681199636E-1,-4.365779713E-1,-1.707848316E0,1.885134075E0
1.561024375E0,5.008892304E-1,-4.043612748E-1,-1.481328351E0,1.615156879E0
1.570996375E0,1.405040240E-1,-4.427119929E-1,-1.253926626E0,1.337186327E0
1.580968375E0,-9.552172288E-2,-3.164673910E-1,-5.212617338E-1,6.172437154E-1
1.590940375E0,2.715203559E-1,-2.143752980E-1,-1.656475264E-1,3.835611751E-1
1.600912375E0,5.909417602E-1,-1.999294594E-1,-5.936619580E-2,6.266644220E-1
1.610884375E0,5.928768231E-1,-2.285235134E-1,-1.074232918E-1,6.444111166E-1
1.620856375E0,5.028481939E-1,-3.366695210E-1,-2.153278095E-1,6.423151392E-1
1.630828375E0,4.908149895E-1,-5.280813414E-1,-6.377259904E-1,9.625298416E-1
1.640800375E0,5.189574192E-1,-6.893326387E-1,-9.522366107E-1,1.285010059E0
1.650772375E0,5.966227687E-1,-6.352388772E-1,-1.162889571E0,1.453203122E0
1.660744375E0,5.609943681E-1,-4.257910278E-1,-1.420985670E0,1.585942292E0
1.670716375E0,6.108317951E-1,-2.808367977E-1,-1.571778345E0,1.709523897E0
1.680688375E0,5.861993759E-1,-2.013020933E-1,-1.433239095E0,1.561514183E0
1.690660375E0,5.468237872E-1,-1.345330301E-1,-1.170228412E0,1.298672370E0
1.700632375E0,4.960069516E-1,-2.027302757E-1,-7.277614170E-1,9.037472771E-1
1.710604375E0,5.176854305E-1,-3.645920223E-1,-3.695107001E-1,7.331191616E-1
1.720576375E0,4.777542832E-1,-6.391312225E-1,-1.423896414E-1,8.105631898E-1
1.730547375E0,4.550168735E-1,-8.620338075E-1,2.075615376E-1,9.966064581E-1
1.740519375E0,3.367896082E-1,-1.012484274E0,3.887252355E-1,1.135631522E0
1.750491375E0,2.587857049E-1,-1.110587397E0,7.223591745E-2,1.142625238E0
1.760463375E0,2.574609451E-1,-1.042198655E0,-2.872456384E-1,1.111293944E0
1.770435375E0,2.949983885E-1,-8.943681791E-1,-3.947291565E-1,1.021141320E0
1.780407375E0,3.511976592E-1,-7.736407176E-1,-5.337396920E-1,1.003363252E0
1.790379375E0,4.513090809E-1,-6.834564793E-1,-7.777773303E-1,1.129482280E0
1.800351375E0,5.426523104E-1,-5.610631460E-1,-8.019543976E-1,1.119104213E0
1.810323375E0,5.754130903E-1,-4.555977944E-1,-6.306233776E-1,9.676545970E-1
1.820295375E0,5.931598283E-1,-4.615631238E-1,-4.277583236E-1,8.647868423E-1
1.830267375E0,6.348423629E-1,-5.920911035E-1,-2.996873438E-1,9.183731293E-1
1.840239375E0,5.489151900E-1,-7.453980812E-1,-3.027261418E-1,9.739452255E-1
1.850211375E0,3.950865676E-1,-9.719130760E-1,-3.417861271E-1,1.103415688E0
1.860183375E0,3.066943547E-1,-1.157415700E0,-4.316133928E-1,1.272777534E0
1.870155375E0,3.673506656E-1,-1.235972458E0,-4.016873431E-1,1.350528470E0
1.880127375E0,4.806725554E-1,-1.185526482E0,-2.407421476E-1,1.301720372E0
1.890099375E0,6.295597690E-1,-1.158871072E0,-1.565773255E-1,1.328097935E0
1.900071375E0,7.871092672E-1,-1.127151681E0,-1.866904861E-1,1.387395131E0
1.910042375E0,8.839179622E-1,-1.017930079E0,-3.365540385E-1,1.389518344E0
1.920014375E0,8.757992495E-1,-9.747276333E-1,-4.854861295E-1,1.397431596E0
1.929986375E0,8.321794593E-1,-1.074383484E0,-6.149814910E-1,1.491651688E0
1.939958375E0,7.887035105E-1,-1.208344072E0,-6.556494606E-1,1.584936856E0
1.949930375E0,7.990844379E-1,-1.403752756E0,-6.384323341E-1,1.736851630E0
1.959902375E0,8.942467032E-1,-1.541273713E0,-5.229322833E-1,1.857056811E0
1.969874375E0,1.005149527E0,-1.678137736E0,-3.968189514E-1,1.995980239E0
1.979846375E0,1.036318768E0,-1.788399266E0,-3.851631117E-1,2.102541117E0
1.989818375E0,1.101837258E0,-1.892571799E0,-4.415852344E-1,2.234025710E0
1.999790375E0,1.135084160E0,-1.958287778E0,-5.379970497E-1,2.326531302E0
2.009762375E0,1.120937261E0,-1.983887181E0,-6.925950927E-1,2.381595400E0
2.019734375E0,9.981494596E-1,-2.105725029E0,-8.459663898E-1,2.479120685E0
2.029706375E0,7.409204297E-1,-2.394297108E0,-9.414385575E-1,2.677298691E0
2.039678375E0,8.491143114E-1,-2.065767203E0,-1.055971479E0,2.470519179E0
2.049650375E0,6.235536553E-1,-1.983008344E0,-1.018143502E0,2.314683012E0
2.059622375E0,4.768777855E-1,-2.167406722E0,-1.020790536E0,2.442760250E0
2.069594375E0,6.675888902E-1,-2.081450897E0,-7.586861712E-1,2.313810163E0
2.079565375E0,7.015582895E-1,-1.987393756E0,-4.358590561E-1,2.152182867E0
2.089537375E0,7.040962004E-1,-2.024576785E0,-2.747454607E-1,2.161052449E0
2.099509375E0,6.908841243E-1,-2.098570083E0,-2.821035969E-1,2.227307726E0
2.109481375E0,6.062291593E-1,-2.089523271E0,-4.385990614E-1,2.219457238E0
2.119453375E0,5.721186959E-1,-2.003790518E0,-5.919241655E-1,2.166303409E0
2.129425375E0,5.556520595E-1,-1.893562902E0,-5.657912046E-1,2.052912409E0
2.139397375E0,5.026042919E-1,-1.848236455E0,-5.230094665E-1,1.985479280E0
2.149369375E0,5.590181554E-1,-1.778008472E0,-4.005313486E-1,1.906368481E0
2.159341375E0,5.522440830E-1,-1.691304496E0,-2.035018158E-1,1.790781230E0
2.169313375E0,5.098840754E-1,-1.689975424E0,-9.134988070E-2,1.767581258E0
2.179285208E0,5.592703897E-1,-1.669256108E0,1.572491705E-2,1.760524523E0
2.189257208E0,5.148721889E-1,-1.597983519E0,1.012246585E-1,1.681930774E0
2.199229208E0,4.947310160E-1,-1.584912946E0,2.005419552E-1,1.672400939E0
2.209201208E0,5.025301784E-1,-1.636262901E0,2.481944239E-1,1.729593401E0
2.219173208E0,4.375353067E-1,-1.647040197E0,3.245859575E-1,1.734801025E0
2.229144208E0,3.185370860E-1,-1.581465135E0,3.457926393E-1,1.649869812E0
2.239116208E0,2.269031037E-1,-1.468660066E0,2.775585562E-1,1.511782445E0
2.249088208E0,1.756261653E-1,-1.323780095E0,3.195555979E-1,1.373081961E0
2.259060208E0,1.677370289E-1,-1.246888917E0,4.343785411E-1,1.330996769E0
2.269032208E0,1.139526583E-1,-1.206644578E0,6.258514649E-1,1.364062463E0
2.279004208E0,2.209962465E-2,-1.216055672E0,9.518150264E-1,1.544419514E0
2.288976208E0,-4.625037946E-2,-1.230521099E0,1.163714029E0,1.694270230E0
2.298948208E0,-1.915378278E-1,-1.252072474E0,1.069731731E0,1.657919840E0
2.308920208E0,-3.678510410E-1,-1.176259522E0,9.395662791E-1,1.549737282E0
2.318892208E0,-4.257940245E-1,-9.992648891E-1,9.100442719E-1,1.417043206E0
2.328864208E0,-5.955134057E-1,-8.316436350E-1,8.481427234E-1,1.328763873E0
2.338836208E0,-7.613150793E-1,-6.282289428E-1,9.196746361E-1,1.349101068E0
2.348808208E0,-7.686178131E-1,-4.654550305E-1,9.914380985E-1,1.338047545E0
2.358780208E0,-7.752352533E-1,-3.265398046E-1,1.105040728E0,1.388788304E0
2.368752208E0,-8.119291627E-1,-2.647478914E-1,1.255319433E0,1.518271151E0
2.378723208E0,-9.052220732E-1,-2.573017547E-1,1.389320658E0,1.678047403E0
2.388695208E0,-9.563161399E-1,-2.681793299E-1,1.317374178E0,1.649828912E0
2.398667208E0,-9.554677089E-1,-2.225842041E-1,1.122471278E0,1.490772967E0
2.408639208E0,-1.055868787E0,-1.818060145E-1,8.554885805E-1,1.371048152E0
2.418611208E0,-1.326954987E0,-1.271208072E-1,6.470394355E-1,1.481765592E0
2.428583208E0,-1.491083553E0,-2.830549389E-2,5.532237840E-1,1.590656443E0
2.438555208E0,-1.366727602E0,3.139185897E-1,5.488114750E-1,1.505882882E0
2.448527208E0,-1.338934178E0,5.078096294E-1,5.550867069E-1,1.535817894E0
2.458499208E0,-1.256769396E0,4.275370064E-1,5.482384479E-1,1.436252973E0
2.468471208E0,-1.033877628E0,3.444974810E-1,5.240789223E-1,1.209231236E0
2.478443208E0,-8.748055883E-1,1.624219099E-1,3.433800781E-1,9.537167148E-1
2.488415208E0,-7.681778102E-1,-2.422238320E-2,1.783494329E-1,7.889818706E-1
2.498387208E0,-6.539616618E-1,-9.149810761E-2,1.019222313E-1,6.681511056E-1
2.508359208E0,-5.242251027E-1,-8.836546183E-2,1.137803847E-1,5.436601779E-1
2.518330208E0,-4.703554358E-1,-1.338755107E-1,1.671204400E-1,5.168037633E-1
2.528302208E0,-5.742863318E-1,-2.750556555E-1,1.509593207E-1,6.544074580E-1
2.538274208E0,-6.525350873E-1,-4.217935789E-1,9.537393451E-2,7.828205738E-1
2.548246208E0,-7.321773805E-1,-5.499864730E-1,-1.158976614E-2,9.158073813E-1
2.558218208E0,-8.518945163E-1,-6.198469591E-1,-4.126789391E-2,1.054342240E0
2.568190208E0,-9.434237603E-1,-6.895466468E-1,-1.100475222E-1,1.173726300E0
2.578162208E0,-9.647806424E-1,-6.862599269E-1,-1.550441855E-1,1.194065775E0
2.588134208E0,-9.183252449E-1,-6.792037994E-1,-1.663924617E-1,1.154264055E0
2.598106208E0,-8.146348156E-1,-6.857634982E-1,-2.187671417E-1,1.087088092E0
2.608078208E0,-6.993389057E-1,-3.977431038E-1,-7.405849457E-2,8.079351102E-1
2.618050208E0,-5.996921184E-1,-1.283756196E-1,-2.205786091E-1,6.517406381E-1
2.628022208E0,-5.273879347E-1,-1.065660900E-1,-4.698009735E-1,7.142879811E-1
2.637994208E0,-4.406819858E-1,-1.688485846E-1,-6.441918415E-1,7.985571900E-1
2.647965208E0,-4.008339420E-1,-1.580081391E-1,-7.671751589E-1,8.798818929E-1
2.657937208E0,-4.647263213E-1,-9.904335469E-2,-8.953303385E-1,1.013605720E0
2.667909208E0,-4.724140211E-1,-9.334875137E-2,-9.557478637E-1,1.070206978E0
2.677881208E0,-3.561871614E-1,-1.509718922E-1,-9.999797112E-1,1.072203912E0
2.687853208E0,-3.606272446E-1,-2.576943952E-1,-1.149148030E0,1.231665379E0
2.697825208E0,-5.338110280E-1,-8.228719345E-1,-1.764110810E0,2.018454702E0
2.707797208E0,-3.025202467E-1,-6.447154596E-1,-1.468051078E0,1.631671074E0
2.717769208E0,-5.171017322E-1,-2.037316114E-1,-1.132208061E0,1.261267563E0
2.727741208E0,-6.417553067E-1,-8.415751308E-2,-1.236833460E0,1.395954644E0
2.737713208E0,-4.075551702E-1,3.003042251E-2,-1.216037253E0,1.282867742E0
2.747685208E0,-2.706987490E-1,1.854631555E-1,-1.053596340E0,1.103512411E0
2.757657208E0,-2.255502773E-1,1.365029570E-1,-1.029027509E0,1.062263432E0
2.767629208E0,-2.349403209E-1,-2.557075113E-2,-9.104565006E-1,9.406284374E-1
2.777600208E0,-2.666881438E-1,-2.203894517E-1,-7.134474331E-1,7.929068774E-1
2.787572208E0,-2.813493061E-1,-2.630428433E-1,-4.315864956E-1,5.784599145E-1
2.797544208E0,-2.694957574E-1,-1.280493450E-1,-2.300277096E-1,3.767457302E-1
2.807516208E0,-2.685224153E-1,-1.401226759E-2,-9.437113702E-2,2.849676169E-1
2.817488208E0,-3.054382266E-1,7.818604410E-3,-9.125106275E-2,3.188736385E-1
2.827460208E0,-3.469910261E-1,-1.662275702E-2,-3.744147599E-2,3.494008477E-1
2.837432208E0,-4.860363525E-1,-4.361935169E-2,-1.226254678E-1,5.031609973E-1
2.847404208E0,-6.847952724E-1,1.752118170E-3,-3.930118293E-1,7.895605949E-1
2.857376208E0,-7.995950460E-1,1.681366861E-1,-6.118467987E-1,1.020773573E0
2.867348208E0,-6.916306675E-1,4.120015392E-1,-5.951512438E-1,1.001150963E0
2.877320208E0,-4.840133621E-1,6.523922691E-1,-3.920125401E-1,9.019747441E-1
2.887292208E0,-5.149426478E-1,7.354133758E-1,-2.690444255E-1,9.372212475E-1
2.897263208E0,-5.193287905E-1,6.815643203E-1,-8.240422547E-2,8.608267954E-1
2.907235208E0,-3.945370755E-1,9.019356456E-1,2.698484176E-1,1.020767153E0
2.917207208E0,-4.800742391E-1,1.091514364E0,5.113273144E-1,1.297432273E0
2.927179208E0,-4.787593465E-1,1.228292140E0,7.083574319E-1,1.496556830E0
2.937151208E0,-6.536119983E-2,1.168283335E0,8.072396958E-1,1.421546329E0
2.947123208E0,2.236453275E-1,7.937548470E-1,1.035993882E0,1.324140216E0
2.957095208E0,2.161262468E-1,2.946882668E-1,1.468556862E0,1.513344306E0
2.967067208E0,1.940873601E-1,-7.070131570E-2,2.079691470E0,2.089924685E0
2.977039208E0,2.231079684E-1,-3.955495209E-1,2.595227026E0,2.634661250E0
2.987011208E0,2.175936055E-1,-6.720883226E-1,2.741732522E0,2.831280084E0
2.996983208E0,3.759047766E-1,-8.960156322E-1,2.372413026E0,2.563687185E0
3.006955208E0,5.785846201E-1,-1.090346675E0,1.752215819E0,2.143332991E0
3.016926208E0,7.695818728E-1,-9.632872635E-1,1.237263231E0,1.746710884E0
3.026898208E0,7.772199444E-1,-7.197782135E-1,6.397257382E-1,1.237497692E0
3.036870208E0,5.683234875E-1,-6.234383190E-1,2.277917343E-1,8.738169134E-1
3.046842208E0,4.573589757E-1,-7.568285108E-1,8.511791825E-2,8.883758705E-1
3.056814208E0,4.630415922E-1,-1.075306467E0,1.999835461E-1,1.187722582E0
3.066786208E0,3.870783672E-1,-1.528147884E0,6.271284968E-1,1.696571769E0
3.076758208E0,2.818878347E-1,-1.894429167E0,1.039928473E0,2.179397588E0
3.086730208E0,6.191324294E-2,-2.073751284E0,1.113489954E0,2.354599226E0
3.096702208E0,-1.531267373E-1,-2.032586886E0,7.842595536E-1,2.184014719E0
3.106674208E0,-2.628453536E-1,-1.804572665E0,1.587752938E-1,1.830513528E0
3.116646208E0,-2.388204601E-1,-1.456313378E0,-4.507448977E-1,1.543066696E0
3.126617208E0,-1.392666435E-1,-1.098069970E0,-9.540059781E-1,1.461259820E0
3.136589208E0,2.016894713E-2,-7.954682274E-1,-1.370209034E0,1.584502851E0
3.146561208E0,2.573415157E-1,-5.373820688E-1,-1.521084740E0,1.633616518E0
3.156533208E0,5.411735496E-1,-3.216173261E-1,-1.403367425E0,1.538098386E0
3.166505208E0,7.785582259E-1,-1.923263249E-1,-1.108678281E0,1.368323740E0
3.176477625E0,9.511022508E-1,-2.204609339E-1,-6.570527923E-1,1.176824918E0
3.186449625E0,1.021470568E0,-4.777202962E-1,-1.709111899E-1,1.140539099E0
3.196421625E0,9.563105120E-1,-7.920905833E-1,4.140588820E-2,1.242437819E0
3.206393625E0,7.924908252E-1,-1.020145881E0,4.639180899E-2,1.292629694E0
3.216365625E0,6.364878425E-1,-1.125117874E0,-1.393023115E-1,1.300158505E0
3.226337625E0,5.376731139E-1,-1.128923973E0,-4.210843116E-1,1.319421733E0
3.236308625E0,5.269607225E-1,-1.119177103E0,-8.217431295E-1,1.485094866E0
3.246280625E0,5.081560770E-1,-1.039773668E0,-1.229712721E0,1.688651905E0
3.256252625E0,5.473292059E-1,-8.556897247E-1,-1.692295307E0,1.973736956E0
3.266224625E0,7.082277699E-1,-7.410185167E-1,-2.083397436E0,2.321904367E0
3.276196625E0,8.848161677E-1,-8.243637054E-1,-2.351556008E0,2.644294013E0
3.286168625E0,9.207277197E-1,-1.095528039E0,-2.356100464E0,2.756652066E0
3.296140625E0,7.037233673E-1,-1.516748006E0,-2.277143172E0,2.825089754E0
3.306112625E0,5.125432429E-1,-1.809905910E0,-2.326277325E0,2.991659435E0
3.316084625E0,3.930232313E-1,-1.868344738E0,-2.344093207E0,3.023235399E0
3.326056625E0,5.508316880E-1,-1.651989719E0,-2.074676313E0,2.708646781E0
3.336027625E0,9.307247043E-1,-1.315312011E0,-1.737498962E0,2.369640649E0
3.345999625E0,1.097393739E0,-1.163210876E0,-1.578613155E0,2.247076335E0
3.355971625E0,1.208066913E0,-1.384708959E0,-1.602159893E0,2.437982956E0
3.365943625E0,1.124035116E0,-1.950535686E0,-1.749129074E0,2.850876518E0
3.375915625E0,1.085493194E0,-2.303752096E0,-1.788896572E0,3.112188963E0
3.385887625E0,1.001408186E0,-2.442137711E0,-1.864973525E0,3.231869614E0
3.395859625E0,7.551263863E-1,-2.732989765E0,-1.729923309E0,3.321458049E0
3.405831625E0,5.578290510E-1,-3.308550498E0,-1.409532144E0,3.639293958E0
3.415803625E0,2.144565743E-1,-4.051874572E0,-1.003963419E0,4.179906903E0
3.425775625E0,-4.293701085E-1,-4.990096868E0,-5.995454264E-1,5.044291840E0
3.435746625E0,-7.931291950E-1,-5.616048321E0,-1.081635493E-1,5.672808124E0
3.445718625E0,-8.953034413E-1,-5.510132441E0,3.062414879E-1,5.590788103E0
3.455690625E0,-8.030665380E-1,-5.147383461E0,5.689826149E-1,5.240631028E0
3.465662625E0,-2.652162534E-1,-4.291435289E0,7.981344116E-1,4.373073867E0
3.475634625E0,3.749977273E-1,-2.441608245E0,6.554915857E-1,2.555727555E0
3.485606625E0,4.784548527E-1,-2.135879412E0,3.745901763E-1,2.220634528E0
3.495578625E0,6.400642920E-1,-2.614740939E0,1.641845530E-1,2.696944390E0
3.505550625E0,4.662096137E-1,-3.016402554E0,2.471851945E-1,3.062211014E0
3.515522625E0,4.046279079E-1,-2.869278422E0,5.883994639E-1,2.956805089E0
3.525494625E0,1.014097813E0,-2.041572010E0,1.007573490E0,2.492311173E0
3.535465625E0,1.486964482E0,-1.516266926E0,1.745115545E0,2.748737351E0
3.545437625E0,1.996768597E0,-1.240829448E0,2.807636490E0,3.661907318E0
3.555409625E0,2.686621345E0,-2.568249873E-1,3.842073258E0,4.695255078E0
3.565381625E0,2.797503850E0,7.133078308E-1,5.670504609E0,6.363132749E0
3.575353625E0,2.733932921E0,1.184171828E0,6.123748022E0,6.810061819E0
3.585325625E0,2.880872281E0,1.309963125E0,5.888586457E0,6.685123705E0
3.595297625E0,3.529122675E0,2.554071691E0,5.286624377E0,6.850283670E0
3.605269625E0,4.203160459E0,3.670670317E0,4.676765631E0,7.280969386E0
3.615241625E0,4.882577097E0,4.212480629E0,3.269799246E0,7.230224012E0
3.625213625E0,5.004462308E0,4.410497464E0,2.545591766E0,7.139829711E0
3.635184625E0,4.892353057E0,4.310900086E0,2.202975919E0,6.882737892E0
3.645156625E0,5.267616248E0,4.663950289E0,8.379153585E-1,7.085359228E0
3.655128625E0,5.197337394E0,4.134373230E0,6.977880049E-1,6.677744087E0
3.665100625E0,4.823418478E0,3.585385461E0,4.874888009E-1,6.029759535E0
3.675072625E0,4.450785949E0,3.469306828E0,1.560124844E-1,5.645345457E0
3.685044625E0,4.392761105E0,3.475662167E0,-2.845149887E-1,5.608700955E0
3.695016625E0,3.750623390E0,3.234535565E0,-9.321555179E-1,5.039673605E0
3.704988625E0,2.572864934E0,2.430681700E0,-8.432035804E-1,3.638521646E0
3.714960625E0,1.403132951E0,1.701860621E0,-7.661606669E-1,2.334976192E0
3.724931625E0,1.001844388E-1,6.183184969E-1,-1.480330231E0,1.607399228E0
3.734903625E0,-6.012387800E-1,-5.354666671E-1,-6.249650270E-1,1.019212395E0
3.744875625E0,-8.170776361E-1,-6.192943972E-1,3.460621959E-1,1.082081539E0
3.754847625E0,-9.337798744E-1,-4.661906102E-1,-5.534430546E-1,1.181345738E0
3.764819625E0,-9.098554069E-1,-6.523919767E-1,-4.228250277E-1,1.196759440E0
3.774791625E0,-7.978461438E-1,-1.258934766E-1,-9.773796380E-1,1.267942662E0
3.784763625E0,-9.568114722E-1,2.143615571E-1,-1.742020029E-1,9.958842344E-1
3.794735625E0,-1.057009360E0,-3.449269590E-1,2.845193156E0,3.054728709E0
3.804707625E0,-8.877418220E-2,3.084152780E0,1.011284133E0,3.246933141E0
3.814679625E0,4.003647029E-2,7.156689073E0,-1.423946115E0,7.297083249E0
3.824650625E0,-1.518375725E-1,6.479438244E0,5.356786287E-1,6.503316553E0
3.834622625E0,-1.408793056E-1,5.664672012E0,8.390456253E-1,5.728206835E0
3.844594625E0,-6.487450683E-1,5.085616983E0,7.140619755E-1,5.176316718E0
3.854566625E0,-1.332078171E0,4.157598663E0,1.651843100E0,4.667830815E0
3.864538625E0,-1.994692250E0,3.536474964E0,2.150552123E0,4.594597564E0
3.874510625E0,-2.183017033E0,3.484379196E0,1.735973423E0,4.463190056E0
3.884482625E0,-2.202691160E0,3.863975466E0,6.675988305E-1,4.497537431E0
3.894454625E0,-1.603574919E0,4.697873203E0,-1.487019446E0,5.181958316E0
3.904425625E0,-8.695394397E-3,6.176648952E0,-4.360464009E0,7.560735034E0
3.914397625E0,1.482718819E0,7.239794964E0,-6.178160457E0,9.632380435E0
3.924369625E0,1.957804506E0,6.539289173E0,-6.654198071E0,9.532767350E0
3.934341625E0,1.386916868E0,5.090333347E0,-6.106974115E0,8.070326191E0
3.944313625E0,1.368437328E0,4.323202627E0,-4.570131129E0,6.438074263E0
3.954285625E0,1.938041502E0,4.368374122E0,-4.153020000E0,6.331372083E0
3.964257625E0,1.337766343E0,4.059890812E0,-4.213548038E0,6.002192871E0
3.974229625E0,5.148730659E-1,3.418629887E0,-4.317470602E0,5.531064724E0
3.984201625E0,9.067517048E-1,3.276338187E0,-4.596819575E0,5.717284388E0
3.994172625E0,1.742991251E0,3.817507936E0,-5.715567346E0,7.090775376E0
4.004144625E0,2.160605240E0,4.963774458E0,-6.718924409E0,8.628511870E0
4.014116625E0,2.010959789E0,5.615566510E0,-6.250962385E0,8.640201227E0
4.024088625E0,2.603508437E0,5.088293839E0,-5.255651675E0,7.764719242E0
4.034060625E0,3.569963138E0,3.620222880E0,-3.495772496E0,6.170176322E0
4.044032625E0,3.061371151E0,3.366300523E-1,-1.386120477E0,3.377372217E0
4.054004625E0,1.673803487E0,-3.591714780E0,1.933378347E0,4.409079837E0
4.063976625E0,1.526649535E-1,-5.477924223E0,4.207399106E0,6.908919425E0
4.073948625E0,-7.813084638E-1,-6.231097054E0,5.796500412E0,8.546135410E0
4.083919625E0,-1.276366485E0,-6.397584241E0,5.938295392E0,8.821652208E0
4.093891625E0,-1.368242615E0,-5.551240121E0,4.887203707E0,7.521510142E0
4.103863625E0,-1.391887586E0,-4.215054573E0,4.136741644E0,6.067673981E0
4.113835625E0,-8.401677060E-1,-2.732050995E0,4.025832535E0,4.937338556E0
4.123807625E0,7.306019944E-1,-9.524269375E-1,3.572493228E0,3.768766935E0
4.133779625E0,2.004890379E0,-1.247921535E-1,2.776325819E0,3.426827041E0
4.143751625E0,2.744899374E0,-7.008466834E-1,2.592733188E0,3.840302597E0
4.153723625E0,3.036180176E0,-1.443905001E0,2.444650698E0,4.156870066E0
4.163695625E0,3.786009570E0,-2.031030357E0,2.004757063E0,4.741097305E0
4.173666625E0,4.945941619E0,-2.214045283E0,1.227625850E0,5.556203762E0
4.183638958E0,6.053955656E0,-1.797270370E0,3.768952218E-1,6.326342536E0
4.193610958E0,7.004212400E0,-7.679975697E-1,-2.604794605E-1,7.051004266E0
4.203582958E0,6.533712684E0,7.188181007E-1,-9.155131727E-1,6.636585362E0
4.213554958E0,5.773984539E0,1.937336620E0,-1.749596851E0,6.336659986E0
4.223526958E0,5.216256060E0,2.486733986E0,-2.111226089E0,6.152271840E0
4.233498958E0,3.933133702E0,2.628112644E0,-1.484432053E0,4.957827680E0
4.243470958E0,1.980958310E0,2.249281482E0,-2.258622701E0,3.752977420E0
4.253441958E0,9.530493736E-1,1.895079669E0,-2.269552317E0,3.106525033E0
4.263413958E0,5.120827746E-1,1.759571324E0,-9.851961958E-1,2.080608458E0
4.273385958E0,-4.031573331E-1,1.384416599E0,3.593803624E-1,1.486034791E0
4.283357958E0,-1.831770111E0,5.100125679E-1,1.946570835E0,2.721145453E0
4.293329958E0,-3.736118202E0,-6.626316208E-1,3.546757293E0,5.193952944E0
4.303301958E0,-5.225043256E0,-1.633164462E0,4.002635461E0,6.781548040E0
4.313273958E0,-5.837683522E0,-1.731130759E0,3.501571180E0,7.023984861E0
4.323245958E0,-5.578796879E0,-1.489210398E0,3.251261233E0,6.626569386E0
4.333216958E0,-5.415640851E0,-1.511350880E0,2.819293499E0,6.289814238E0
4.343188958E0,-4.893851114E0,-1.098586571E0,2.663775104E0,5.679116920E0
4.353160958E0,-4.081049547E0,-6.001061743E-1,2.440350509E0,4.792744874E0
4.363132958E0,-3.442123708E0,-6.054967225E-1,1.814675338E0,3.938005648E0
4.373104958E0,-2.759525015E0,-1.100482239E0,1.201095278E0,3.204476452E0
4.383076958E0,-2.158106725E0,-1.465674185E0,4.217105484E-1,2.642624688E0
4.393048958E0,-1.734304043E0,-1.446804928E0,1.755404305E-1,2.265362985E0
4.403020958E0,-1.164164264E0,-1.016976398E0,6.996263695E-1,1.696760585E0
4.412992958E0,-6.680964285E-1,-5.195531774E-1,1.882610482E0,2.064100426E0
4.422963958E0,-1.073661060E0,-1.764795372E0,1.163620473E0,2.370920366E0
4.432935958E0,-1.018352832E0,-2.670714287E0,-3.203278981E0,4.293105348E0
4.442907958E0,-6.775776887E-1,-3.429073307E0,-6.102444277E0,7.032601327E0
4.452879958E0,-4.406005633E-1,-4.152262201E0,-5.605119874E0,6.989476307E0
4.462851958E0,5.567894161E-2,-3.129509924E0,-3.509704657E0,4.702654494E0
4.472823958E0,-2.630779266E-2,-1.831482574E0,-1.183936039E0,2.180991762E0
4.482795958E0,-2.030913413E-2,-9.388182740E-1,3.988257158E-1,1.020222605E0
4.492766958E0,3.163747126E-1,-5.086549906E-1,7.498130214E-1,9.597095526E-1
4.502738958E0,-1.266438498E0,-3.013888836E-1,-1.524470862E0,2.004672826E0
4.512710958E0,-2.293880242E0,1.385444539E0,-2.552797290E0,3.701096748E0
4.522682958E0,-1.700454512E0,3.413225306E0,-1.570392555E0,4.124049625E0
4.532654958E0,-1.034126866E0,4.651653010E0,-1.010630414E0,4.871208057E0
4.542626958E0,-5.838263565E-1,5.472341301E0,-8.796200395E-2,5.504099368E0
4.552598958E0,-5.107408386E-1,4.045228626E0,8.406549253E-1,4.163103596E0
4.562570958E0,3.038277572E-1,2.899271422E0,1.352173005E0,3.213480655E0
4.572541958E0,1.570411266E0,1.942222261E0,2.993391714E0,3.898565481E0
4.582513958E0,1.924934968E0,1.385876648E0,4.181186331E0,4.807114295E0
4.592485958E0,2.272758345E0,1.598537689E0,4.694413113E0,5.455113905E0
4.602457958E0,2.370386966E0,1.330260564E0,4.860427845E0,5.568849645E0
4.612429958E0,2.081153274E0,7.948544160E-1,4.871149592E0,5.356406523E0
4.622401958E0,1.536599742E0,-1.000582121E-1,4.716095173E0,4.961119238E0
4.632373958E0,1.119595617E0,-1.396092757E0,4.048913834E0,4.426767734E0
4.642345958E0,1.899754518E-1,-2.427340747E0,3.274967015E0,4.080867888E0
4.652316958E0,-1.017224320E0,-2.964598270E0,2.503087771E0,4.011114135E0
4.662288958E0,-2.137520433E0,-3.093363899E0,1.409208208E0,4.015440398E0
4.672260958E0,-3.087576617E0,-2.963563897E0,1.094585614E-1,4.281100503E0
4.682232958E0,-3.678590956E0,-2.830756965E0,-4.687315178E-1,4.665289450E0
4.692204958E0,-4.282693702E0,-2.825854952E0,-3.128308614E-1,5.140504324E0
4.702176958E0,-5.052125301E0,-2.984856533E0,6.674143508E-2,5.868372262E0
4.712148958E0,-5.493778363E0,-3.205065013E0,6.182249415E-1,6.390324290E0
4.722120958E0,-5.504078819E0,-3.439140458E0,1.183574827E0,6.597228214E0
4.732091958E0,-5.876211410E0,-3.330530474E0,1.230578255E0,6.865611161E0
4.742063958E0,-6.401866157E0,-2.943193660E0,1.798997637E0,7.272047285E0
4.752035958E0,-6.561786920E0,-2.929524916E0,1.730156174E0,7.391387164E0
4.762007958E0,-6.071519523E0,-3.341332620E0,1.039967065E0,7.007808822E0
4.771979958E0,-3.985207835E0,-5.376893107E0,-9.464068453E-2,6.693416006E0
4.781951958E0,-1.314717203E-1,-9.955173501E0,-3.613485718E0,1.059150807E1
4.791923958E0,4.239324903E0,-1.226804082E1,-5.689567117E0,1.417208084E1
4.801895958E0,9.762882552E0,-9.736277136E0,-5.921478800E0,1.500576154E1
4.811866958E0,1.615616090E1,-4.361371497E0,-4.162792452E0,1.724447556E1
4.821838958E0,1.967400254E1,-1.347536748E0,-1.210564698E0,1.975721889E1
4.831810958E0,2.122375092E1,-8.103036368E-1,-3.807584041E-1,2.124262630E1
4.841782958E0,1.793572123E1,-2.532767361E0,-7.330151403E-1,1.812849463E1
4.851754958E0,1.168909864E1,-4.746767913E0,-3.623304655E-1,1.262133575E1
4.861726958E0,6.420884226E0,-4.834605371E0,-5.964700833E-2,8.037706209E0
4.871698958E0,3.465386270E0,-3.264401973E0,1.961240914E-1,4.764838602E0
4.881669958E0,1.753821464E0,-1.914664333E0,3.277672814E-1,2.617109212E0
4.891641958E0,4.652535939E-1,-1.268228915E0,7.829608870E-1,1.561375432E0
4.901613958E0,-7.322234273E-1,-1.305815987E0,1.248836040E0,1.949589186E0
4.911585958E0,-1.679813840E0,-1.600381608E0,1.484812122E0,2.754571268E0
4.921557958E0,-2.196890722E0,-1.675151124E0,1.445335669E0,3.117924843E0
4.931529958E0,-2.270298421E0,-1.280635684E0,1.032964001E0,2.803800511E0
4.941501958E0,-2.173573780E0,-5.364849232E-1,3.628893131E-1,2.268022862E0
4.951473958E0,-2.095997601E0,6.421080400E-1,6.026498593E-1,2.273476529E0
4.961444958E0,-2.239234504E0,1.797530278E0,2.010059756E0,3.505085803E0
4.971416958E0,-2.559424524E0,2.676117115E0,3.032092388E0,4.786004696E0
4.981388958E0,-3.132215431E0,3.267295468E0,2.975511805E0,5.416609981E0
4.991360958E0,-3.759596527E0,3.379498274E0,2.651618743E0,5.708472351E0
5.001332958E0,-4.263418356E0,3.316541888E0,2.248226790E0,5.850701656E0
5.011304958E0,-4.662641682E0,3.015693287E0,1.471687608E0,5.744605980E0
5.021276958E0,-5.224526947E0,1.813821206E0,-7.284753621E-2,5.530907335E0
5.031247958E0,-4.926868002E0,1.202976035E0,-5.595235741E-1,5.102376532E0
5.041219958E0,-3.795406045E0,1.563082805E-1,1.145884114E0,3.967693250E0
5.051191958E0,-2.499274217E0,-9.387354628E-1,1.390147601E0,3.010001035E0
5.061163958E0,-1.406312667E0,-1.390921188E0,8.616293263E-1,2.157494418E0
5.071135958E0,-2.499947816E-1,-2.005342077E0,2.470441304E-1,2.035908897E0
5.081107958E0,1.010526919E0,-2.147923507E0,6.208817701E-1,2.453616559E0
5.091079958E0,1.995004492E0,-2.207856883E0,4.259578197E-1,3.006013140E0
5.101051958E0,2.598142447E0,-2.210670855E0,1.706042111E-1,3.415628142E0
5.111022958E0,2.576059268E0,-2.117964274E0,-2.436397353E-1,3.343832283E0
5.120994958E0,1.889259351E0,-1.852460484E0,-1.344633605E0,2.967987579E0
5.130966958E0,1.051849777E0,-1.417391240E0,-2.362581079E0,2.949097360E0
5.140938958E0,3.369422936E-1,-1.035192082E0,-3.117485125E0,3.302100280E0
5.150910958E0,-1.307846725E-1,-5.679638106E-1,-3.365168502E0,3.415266691E0
5.160882958E0,-4.020387608E-1,4.886247687E-2,-2.961915860E0,2.989476253E0
5.170854958E0,-8.766531622E-1,5.285520422E-1,-2.130640161E0,2.363792614E0
5.180825458E0,-1.531070614E0,7.203582573E-1,-1.421129512E0,2.209683763E0
5.190797458E0,-2.115933098E0,8.169902202E-1,-1.016822177E0,2.485673598E0
5.200769458E0,-2.550412796E0,8.891861574E-1,-8.941864769E-1,2.845140929E0
5.210741458E0,-2.915748584E0,6.522219689E-1,-8.938849068E-1,3.118655724E0
5.220713458E0,-2.393051943E0,2.230235492E-1,-8.639576876E-1,2.553989035E0
5.230685458E0,-1.081972877E0,1.322866760E-1,-7.865963933E-1,1.344209417E0
5.240657458E0,-2.379904479E-1,-4.681953281E-2,-8.297485524E-1,8.644733554E-1
5.250628458E0,1.185809487E-1,-6.465699772E-1,-9.632021865E-1,1.166135768E0
5.260600458E0,3.718794072E-1,-1.361442304E0,-9.387940080E-1,1.695037943E0
5.270572458E0,4.270227438E-1,-1.981814343E0,-6.007388431E-1,2.114432234E0
5.280544458E0,6.073315787E-1,-2.312503185E0,-3.925235868E-2,2.391247243E0
5.290516458E0,8.352080977E-1,-2.387301207E0,5.449040732E-1,2.587218597E0
5.300488458E0,8.418353319E-1,-2.181444717E0,8.649755417E-1,2.493104584E0
5.310460458E0,7.956563616E-1,-1.608201236E0,7.909791738E-1,1.960874375E0
5.320431458E0,7.458240509E-1,-8.841617180E-1,6.550594765E-1,1.329322525E0
5.330403458E0,7.803243774E-1,-9.691792835E-2,5.121754530E-1,9.384151072E-1
5.340375458E0,1.046924667E0,7.376421882E-1,3.859858149E-1,1.337591980E0
5.350347458E0,1.254958659E0,1.116963347E0,2.878003930E-1,1.704510904E0
5.360319458E0,1.575668498E0,1.630080640E0,3.156020030E-2,2.267353116E0
5.370291458E0,1.672244035E0,1.940432136E0,-6.615452081E-1,2.645622620E0
5.380263458E0,1.687295938E0,2.451810175E0,-1.614761227E0,3.386117915E0
5.390234458E0,1.677262115E0,2.896362725E0,-1.821959361E0,3.810729740E0
5.400206458E0,1.310928792E0,2.630398613E0,-1.579526637E0,3.336530467E0
5.410178458E0,9.644894511E-1,1.545862170E0,-6.002786672E-1,1.918401477E0
5.420150458E0,1.146976374E0,7.198606592E-1,9.675726879E-1,1.664317000E0
5.430122458E0,1.731524277E0,5.519280044E-1,2.129786175E0,2.799783919E0
5.440094458E0,2.038849838E0,2.970373492E-1,2.716013837E0,3.409086536E0
5.450066458E0,2.143795665E0,-2.285334536E-1,2.775578253E0,3.514530129E0
5.460037458E0,2.621066456E0,-5.933733248E-1,2.632893327E0,3.762207935E0
5.470009458E0,3.237186400E0,-7.799956177E-1,2.293443163E0,4.043222786E0
5.479981458E0,3.361070189E0,-1.036271332E0,1.710943247E0,3.911262952E0
5.489953458E0,2.897262027E0,-1.269632539E0,1.137320282E0,3.361486496E0
5.499925458E0,2.074630120E0,-1.354923974E0,9.297160596E-1,2.646560232E0
5.509897458E0,1.016018624E0,-1.240033788E0,1.080220759E0,1.933094547E0
5.519869458E0,-1.123267668E-1,-9.923479253E-1,1.275421283E0,1.619898502E0
5.529840458E0,-1.231801347E0,-8.182981693E-1,1.316002129E0,1.979597953E0
5.539812458E0,-2.364153249E0,-8.899742159E-1,1.248683135E0,2.817886489E0
5.549784458E0,-3.413722612E0,-1.232811161E0,1.228314652E0,3.831720542E0
5.559756458E0,-4.260757288E0,-1.681875715E0,1.303583520E0,4.762571635E0
5.569728458E0,-4.752290608E0,-2.066485095E0,1.465852525E0,5.385475865E0
5.579700458E0,-4.855569393E0,-2.301721358E0,1.611687346E0,5.609992107E0
5.589672458E0,-4.543346788E0,-2.288172775E0,1.857813902E0,5.415644669E0
5.599643458E0,-3.827151164E0,-1.993043189E0,2.043971707E0,4.774633758E0
5.609615458E0,-2.948838562E0,-1.583292244E0,2.056132161E0,3.928122027E0
5.619587458E0,-1.983234047E0,-1.182899913E0,2.060045118E0,3.094552532E0
5.629559458E0,-9.483435345E-1,-7.826986393E-1,2.006307160E0,2.353134301E0
5.639531458E0,5.878556728E-2,-3.454280654E-1,1.788868505E0,1.822862260E0
5.649503458E0,9.790384930E-1,1.589401488E-1,1.486828242E0,1.787298678E0
5.659474458E0,1.740086939E0,5.832230335E-1,1.002184696E0,2.091034631E0
5.669446458E0,2.092823732E0,6.988896934E-1,4.295800236E-1,2.247864981E0
5.679418458E0,1.965545050E0,4.153964326E-1,-2.571757472E-1,2.025354513E0
5.689390458E0,1.505352221E0,-3.906797038E-2,-8.617331144E-1,1.734991521E0
5.699362458E0,8.895924658E-1,-4.298239256E-1,-1.377250251E0,1.694975403E0
5.709334458E0,3.692200935E-1,-6.354958624E-1,-1.617368208E0,1.776529873E0
5.719306458E0,-9.836887836E-2,-8.624170925E-1,-1.525527454E0,1.755184802E0
5.729277458E0,-5.390542263E-1,-1.195509506E0,-1.379412844E0,1.903313488E0
5.739249458E0,-8.699569309E-1,-1.551378141E0,-1.198295924E0,2.144647364E0
5.749221458E0,-1.103414617E0,-1.843658524E0,-9.664652252E-1,2.355982938E0
5.759193458E0,-1.220791624E0,-2.010801914E0,-7.981920066E-1,2.484102858E0
5.769165458E0,-1.321863086E0,-2.167933994E0,-7.339965954E-1,2.643106283E0
5.779137458E0,-1.362911709E0,-2.265431345E0,-7.377317968E-1,2.744805223E0
5.789108458E0,-1.385493071E0,-2.176198157E0,-8.052127585E-1,2.702553802E0
5.799080458E0,-1.266018668E0,-1.952762890E0,-8.944617346E-1,2.493220401E0
5.809052458E0,-1.041776778E0,-1.557628083E0,-8.693821496E-1,2.065751540E0
5.819024458E0,-7.446733189E-1,-1.186781221E0,-8.253216255E-1,1.626082349E0
5.828996458E0,-4.253229582E-1,-8.326205586E-1,-8.061921671E-1,1.234545432E0
5.838968458E0,-1.059696740E-1,-5.248767748E-1,-8.096192202E-1,9.706742411E-1
5.848940458E0,1.723174453E-1,-3.133954831E-1,-8.418604749E-1,9.146797746E-1
5.858911458E0,3.806443834E-1,-1.475146528E-1,-8.150030440E-1,9.115265664E-1
5.868883458E0,5.154735750E-1,-5.517249964E-2,-7.029443720E-1,8.734344860E-1
5.878855458E0,5.697626334E-1,6.891535677E-2,-6.055709821E-1,8.343230784E-1
5.888827458E0,4.989996296E-1,3.143167119E-2,-3.223982218E-1,5.949194851E-1
5.898799458E0,4.298861253E-1,3.291174766E-2,-6.919185698E-2,4.366609405E-1
5.908771458E0,4.178508013E-1,7.265139867E-2,2.450152928E-1,4.898060959E-1
5.918742458E0,4.271139604E-1,1.603585736E-1,5.167555770E-1,6.893312220E-1
5.928714458E0,5.320527703E-1,2.333287552E-1,6.556357196E-1,8.760026570E-1
5.938686458E0,5.729680771E-1,2.837086576E-1,7.378057641E-1,9.762890787E-1
5.948658458E0,6.024497384E-1,2.740814363E-1,6.767456299E-1,9.465996876E-1
5.958630458E0,7.760313517E-1,1.665897321E-1,3.953612405E-1,8.867284298E-1
5.968602458E0,9.473775744E-1,-7.884020135E-2,-5.889929563E-2,9.524752873E-1
5.978574458E0,1.169450732E0,-5.937686697E-1,-3.956910235E-1,1.369944391E0
5.988545458E0,1.299489300E0,-1.330047726E0,-6.861298263E-1,1.982037722E0
5.998517458E0,1.484327388E0,-2.234457621E0,-7.960583577E-1,2.798166822E0
6.008489458E0,1.692064342E0,-3.056731970E0,-5.984522894E-1,3.544691413E0
6.018461458E0,1.941855640E0,-3.678853496E0,-3.040625229E-1,4.170997529E0
6.028433458E0,2.272632045E0,-4.239525755E0,-4.514810622E-2,4.810454593E0
6.038405458E0,2.600329306E0,-4.800462894E0,5.783802599E-2,5.459807848E0
6.048376458E0,2.799262108E0,-5.045936024E0,-3.263769597E-2,5.770476923E0
6.058348458E0,2.700337159E0,-4.842051800E0,-3.918315688E-1,5.557950916E0
6.068320458E0,2.362784416E0,-4.240832900E0,-7.762354195E-1,4.916294876E0
6.078292458E0,1.912537116E0,-3.715655871E0,-7.501907516E-1,4.245784137E0
6.088264458E0,1.277367529E0,-3.474539502E0,-2.017280629E-1,3.707396224E0
6.098236458E0,5.255945206E-1,-3.242061224E0,4.766565415E-1,3.318796776E0
6.108207458E0,-2.049700516E-1,-2.891010184E0,9.922958851E-1,3.063430059E0
6.118179458E0,-8.339737505E-1,-2.377522323E0,1.304098660E0,2.837040347E0
6.128151458E0,-1.464300089E0,-1.803916607E0,1.429260065E0,2.727833245E0
6.138123458E0,-1.969630499E0,-1.042110654E0,1.430405242E0,2.647923352E0
6.148095458E0,-2.285856108E0,-9.882898115E-2,1.362625195E0,2.663015722E0
6.158067458E0,-2.599203132E0,7.150242079E-1,1.172443044E0,2.939683526E0
6.168039458E0,-2.904845281E0,1.292771141E0,1.034795787E0,3.343678461E0
6.178009833E0,-3.062944052E0,1.595144696E0,1.208452245E0,3.658752478E0
6.187981833E0,-3.080199185E0,1.638747383E0,1.625810418E0,3.849205051E0
6.197953833E0,-2.985181346E0,1.523720518E0,2.088612567E0,3.949092850E0
6.207925833E0,-2.620874668E0,1.313271918E0,2.554608173E0,3.888404566E0
6.217897833E0,-1.971620892E0,8.815658467E-1,3.008355031E0,3.703329215E0
6.227869833E0,-8.908730060E-1,2.069299652E-1,3.450586967E0,3.569737405E0
6.237840833E0,4.001442629E-1,-7.079560936E-1,3.799721290E0,3.885768797E0
6.247812833E0,1.210854866E0,-1.856121279E0,3.515511526E0,4.155740247E0
6.257784833E0,1.584170349E0,-2.950011513E0,2.479400993E0,4.166484478E0
6.267756833E0,1.770121163E0,-3.686718001E0,1.161452910E0,4.251375238E0
6.277728833E0,1.974456207E0,-3.676547354E0,-4.415279317E-1,4.196477651E0
6.287700833E0,2.197550288E0,-2.725219985E0,-1.880229788E0,3.973828795E0
6.297672833E0,2.169998792E0,-1.688403400E0,-3.141963032E0,4.175108680E0
6.307643833E0,1.624392761E0,-1.145368974E0,-4.072640373E0,4.531768037E0
6.317615833E0,8.604242152E-1,-1.009344246E0,-3.563138267E0,3.801981056E0
6.327587833E0,-4.690344036E-2,-9.846526241E-1,-2.242239388E0,2.449362814E0
6.337559833E0,-7.751723957E-1,-8.123301356E-1,-1.431615616E0,1.819421821E0
6.347531833E0,-1.246917568E0,-4.666268856E-1,-8.736424309E-1,1.592418026E0
6.357503833E0,-1.695000814E0,-7.748372041E-2,-5.369141454E-1,1.779693312E0
6.367474833E0,-1.993411126E0,3.601715273E-1,-3.113624793E-1,2.049477504E0
6.377446833E0,-2.071226456E0,7.238578890E-1,-4.976565242E-3,2.194077037E0
6.387418833E0,-2.091692296E0,9.205805160E-1,2.712242675E-1,2.301349115E0
6.397390833E0,-2.045264234E0,9.228191225E-1,4.542421174E-1,2.289331086E0
6.407362833E0,-1.942302368E0,7.431610827E-1,5.517903391E-1,2.151580689E0
6.417334833E0,-1.721042558E0,4.420812245E-1,4.943706813E-1,1.844403878E0
6.427305833E0,-1.365400869E0,1.881813799E-1,3.512042373E-1,1.422348825E0
6.437277833E0,-1.009038802E0,-2.125097439E-3,4.164445460E-2,1.009900035E0
6.447249833E0,-6.599419016E-1,-9.053638682E-2,-3.334418580E-1,7.449185348E-1
6.457221833E0,-4.250879002E-1,-2.009356190E-1,-6.692266953E-1,8.178870433E-1
6.467193833E0,-3.364505428E-1,-3.662076811E-1,-9.765493333E-1,1.095881213E0
6.477165833E0,-3.222850782E-1,-5.048761544E-1,-1.166526539E0,1.311316808E0
6.487136833E0,-3.803800893E-1,-6.152934399E-1,-1.167770827E0,1.373667985E0
6.497108833E0,-3.870874304E-1,-6.803739003E-1,-8.690014958E-1,1.169576386E0
6.507080833E0,-2.451708287E-1,-4.312991781E-1,-1.042467919E-1,5.069468511E-1
6.517052833E0,-7.269843221E-2,1.730501745E-1,4.580507013E-1,4.950170400E-1
6.527024833E0,9.287658870E-2,6.990365316E-1,3.265488678E-1,7.771179423E-1
6.536996833E0,3.607544947E-1,9.599017987E-1,1.581896952E-1,1.037583369E0
6.546967833E0,6.695810366E-1,9.515320212E-1,1.269132310E-1,1.170409723E0
6.556939833E0,9.540574336E-1,7.913835818E-1,5.262757212E-2,1.240678533E0
6.566911833E0,1.252825595E0,6.603027479E-1,-1.180394965E-1,1.421092894E0
6.576883833E0,1.507366002E0,4.662109293E-1,-4.225069392E-1,1.633406566E0
6.586855833E0,1.660072471E0,2.847892962E-1,-9.892068011E-1,1.953324255E0
6.596827833E0,1.737635202E0,1.129653559E-1,-1.793272921E0,2.499592974E0
6.606798833E0,2.000831242E0,8.242023222E-2,-2.791907480E0,3.435821027E0
6.616770833E0,2.501075744E0,3.571349220E-1,-2.879819782E0,3.830964266E0
6.626742833E0,2.814521002E0,3.817820323E-1,-2.152898026E0,3.564022432E0
6.636714833E0,2.744809327E0,-7.992632166E-1,-1.578545035E0,3.265670584E0
6.646686833E0,2.932889696E0,-1.890078984E0,-4.624182791E-2,3.489466842E0
6.656658833E0,3.267999473E0,-1.994202254E0,1.943410415E0,4.293426047E0
6.666629833E0,3.238664576E0,-1.475644857E0,2.939625689E0,4.616045404E0
6.676601833E0,2.882233513E0,-1.117012756E0,2.859252494E0,4.210737743E0
6.686573833E0,2.620563596E0,-7.768610716E-1,2.814337399E0,3.923182596E0
6.696545833E0,2.388131511E0,-2.620973486E-1,2.957290127E0,3.810174803E0
6.706517833E0,1.858797112E0,2.319163968E-1,2.610469548E0,3.213014655E0
6.716489833E0,1.058173540E0,6.146715885E-1,1.739215119E0,2.126598607E0
6.726460833E0,1.438625550E-1,8.256721660E-1,9.822766811E-1,1.291239110E0
6.736432833E0,-8.804865968E-1,7.414572041E-1,5.327760708E-1,1.268410728E0
6.746404833E0,-1.967652971E0,2.685375815E-1,3.135905609E-1,2.010499860E0
6.756376833E0,-2.936669921E0,-3.449047030E-1,3.030784366E-1,2.972346887E0
6.766348833E0,-3.648377223E0,-9.696266685E-1,3.819795951E-1,3.794303711E0
6.776320833E0,-4.119876813E0,-1.657576002E0,4.927711755E-1,4.468083100E0
6.786291833E0,-4.258597326E0,-2.280099232E0,6.823352757E-1,4.878533091E0
6.796263833E0,-3.916298398E0,-2.656843230E0,1.033938293E0,4.844093051E0
6.806235833E0,-3.116585239E0,-2.723067625E0,1.676255810E0,4.465202614E0
6.816207833E0,-2.080848634E0,-2.447884208E0,2.360607790E0,3.986795364E0
6.826179833E0,-1.130042253E0,-2.080109254E0,2.764742485E0,3.639732272E0
6.836151833E0,-4.174321407E-1,-1.772541471E0,2.808779621E0,3.347446163E0
6.846122833E0,1.176851553E-1,-1.490932549E0,2.684200013E0,3.072728327E0
6.856094833E0,5.928094339E-1,-1.110090164E0,2.558352145E0,2.851120638E0
6.866066833E0,9.183291918E-1,-6.503467669E-1,2.335905058E0,2.592823145E0
6.876038833E0,9.629107028E-1,-2.019893604E-1,1.720731194E0,1.982148472E0
6.886010833E0,7.594638509E-1,1.861811570E-1,7.583066869E-1,1.089255615E0
6.895982833E0,4.328418928E-1,4.312183403E-1,2.540088952E-2,6.115117059E-1
6.905953833E0,-3.142293692E-2,3.634702340E-1,-5.093316597E-1,6.265115733E-1
6.915925833E0,-5.807325947E-1,2.360447869E-2,-1.076634662E0,1.223498963E0
6.925897833E0,-1.050779151E0,-2.798293955E-1,-1.439607005E0,1.804136815E0
6.935869833E0,-1.338662136E0,-4.622019321E-1,-1.590243560E0,2.129441598E0
6.945841833E0,-1.548846150E0,-6.624863175E-1,-1.615283384E0,2.333870803E0
6.955813833E0,-1.710391270E0,-8.944778144E-1,-1.485224643E0,2.435450902E0
6.965784833E0,-1.835197749E0,-1.114221441E0,-1.287313935E0,2.503321267E0
6.975756833E0,-1.912045950E0,-1.284589279E0,-1.021743048E0,2.519930195E0
6.985728833E0,-1.884612569E0,-1.404429279E0,-7.224202779E-1,2.458877222E0
6.995700833E0,-1.890605380E0,-1.602915938E0,-4.829656872E-1,2.525269107E0
7.005672833E0,-1.861250018E0,-1.870150650E0,-2.760844731E-1,2.652911179E0
7.015644833E0,-1.744353068E0,-2.080640181E0,-1.244038984E-1,2.717960176E0
7.025615833E0,-1.505453963E0,-2.175555255E0,5.333976299E-2,2.646181670E0
7.035587833E0,-1.098590080E0,-2.121308589E0,1.708366379E-1,2.395002182E0
7.045559833E0,-6.111047870E-1,-1.918970515E0,1.855359533E-1,2.022454076E0
7.055531833E0,-1.253327286E-1,-1.474356131E0,1.332390413E-1,1.485660438E0
7.065503833E0,2.858779746E-1,-9.525036822E-1,-4.049167603E-2,9.953034999E-1
7.075475833E0,6.408671147E-1,-3.345039316E-1,-3.149962315E-1,7.885595506E-1
7.085446833E0,8.784985435E-1,3.230618808E-1,-5.110589272E-1,1.066447325E0
7.095418833E0,1.027507818E0,8.503246851E-1,-6.206228846E-1,1.471053075E0
7.105390833E0,1.052232769E0,1.211096356E0,-5.866529006E-1,1.708247584E0
7.115362833E0,9.472957134E-1,1.392374805E0,-4.087104338E-1,1.732951524E0
7.125334833E0,8.620023787E-1,1.422845377E0,-1.305920067E-1,1.668709483E0
7.135305833E0,8.823337322E-1,1.507739932E0,1.061792967E-1,1.750161867E0
7.145277833E0,9.492966306E-1,1.621994818E0,2.759391698E-1,1.899519336E0
7.155249833E0,9.818749774E-1,1.709468725E0,3.322443482E-1,1.999186860E0
7.165221833E0,9.996353102E-1,1.674318773E0,3.112645385E-1,1.974715099E0
7.175193833E0,1.165264125E0,1.370368955E0,2.914766836E-1,1.822281595E0
7.185166208E0,1.242125190E0,6.443168257E-1,2.355141521E-1,1.418973600E0
7.195137208E0,1.275198796E0,-3.991814458E-1,-8.514130712E-3,1.336244846E0
7.205109208E0,1.437965400E0,-1.560596861E0,-3.261533037E-1,2.146993952E0
7.215081208E0,1.832033821E0,-2.611646007E0,-6.915148196E-1,3.264235827E0
7.225053208E0,2.375637766E0,-3.529994495E0,-9.641465119E-1,4.362808089E0
7.235025208E0,2.943490114E0,-4.394563801E0,-1.004419794E0,5.383789017E0
7.244997208E0,3.397774916E0,-5.077136766E0,-1.127753360E0,6.212408532E0
7.254968208E0,3.818682641E0,-5.390826437E0,-1.427781596E0,6.758839182E0
7.264940208E0,3.752360598E0,-5.520018328E0,-1.780188314E0,6.907957935E0
7.274912208E0,3.385351921E0,-5.336865408E0,-2.136168849E0,6.671278540E0
7.284884208E0,2.904036611E0,-4.633419052E0,-2.408540925E0,5.975204611E0
7.294856208E0,2.465347502E0,-3.486877127E0,-2.231437826E0,4.818253332E0
7.304828208E0,2.183222855E0,-2.326807521E0,-1.156972774E0,3.393977206E0
7.314799208E0,1.741434138E0,-1.580300954E0,1.638500923E-1,2.357284628E0
7.324771208E0,1.019501810E0,-1.079044811E0,1.073206147E0,1.831800502E0
7.334743208E0,2.584200346E-1,-6.763102316E-1,1.775052119E0,1.917025423E0
7.344715208E0,-5.143427235E-1,-3.690187300E-1,2.328721461E0,2.413227487E0
7.354687208E0,-1.338864450E0,-1.703703956E-1,2.630205655E0,2.956275676E0
7.364658208E0,-2.051055901E0,4.759414271E-3,2.724993113E0,3.410636367E0
7.374630208E0,-2.615511017E0,2.884591549E-1,2.693403238E0,3.765438562E0
7.384602208E0,-3.080640065E0,5.876583293E-1,2.528303304E0,4.028399573E0
7.394574208E0,-3.385310406E0,9.382574529E-1,2.266000426E0,4.180360214E0
7.404546208E0,-3.706251794E0,1.309096567E0,1.968680912E0,4.396105176E0
7.414518208E0,-3.983978750E0,1.615374893E0,1.643124901E0,4.602323562E0
7.424489208E0,-4.150073588E0,1.922603975E0,1.436120895E0,4.793950361E0
7.434461208E0,-4.183079367E0,2.146946437E0,1.429326138E0,4.914316351E0
7.444433208E0,-4.017710752E0,2.165943456E0,1.570814432E0,4.827086981E0
7.454405208E0,-3.538756548E0,2.064355393E0,1.849349765E0,4.494936668E0
7.464377208E0,-2.777384166E0,1.753542552E0,2.227485693E0,3.968685777E0
7.474349208E0,-1.947063755E0,1.247830904E0,2.503498830E0,3.408173356E0
7.484320208E0,-1.106338225E0,6.402036750E-1,2.650133258E0,2.942286746E0
7.494292208E0,-3.502195662E-1,-1.416354968E-1,2.595931323E0,2.623275394E0
7.504264208E0,2.463467038E-1,-1.187273045E0,2.253908676E0,2.559376545E0
7.514236208E0,8.324107897E-1,-2.258761573E0,1.790307505E0,3.000018755E0
7.524208208E0,1.416640019E0,-3.052685112E0,1.195963762E0,3.571566135E0
7.534179208E0,1.898181033E0,-3.273422180E0,2.107848153E-1,3.789830371E0
7.544151208E0,2.207368932E0,-2.791150850E0,-1.294329424E0,3.786593367E0
7.554123208E0,2.257999388E0,-1.892885209E0,-2.842543198E0,4.094096663E0
7.564095208E0,1.968876209E0,-1.083629028E0,-4.000861416E0,4.588857970E0
7.574067208E0,1.299461818E0,-5.943120222E-1,-4.408271429E0,4.634076476E0
7.584039208E0,4.377699262E-1,-3.335049348E-1,-3.978825599E0,4.016705266E0
7.594010208E0,-4.373079962E-1,-1.120315555E-1,-2.979603102E0,3.013606477E0
7.603982208E0,-1.152900773E0,9.343938321E-2,-2.237931159E0,2.519175854E0
7.613954208E0,-1.578984454E0,4.656564671E-1,-1.608994703E0,2.301932190E0
7.623926208E0,-1.724648536E0,8.868067060E-1,-1.081970831E0,2.220697995E0
7.633898208E0,-1.723614163E0,1.238372740E0,-7.454641548E-1,2.249473190E0
7.643870208E0,-1.710108849E0,1.351942332E0,-5.340039861E-1,2.244410970E0
7.653841208E0,-1.645249195E0,1.254957782E0,-4.298910955E-1,2.113426200E0
7.663813208E0,-1.501377869E0,1.080961017E0,-4.421003741E-1,1.902121175E0
7.673785208E0,-1.211091093E0,9.808856285E-1,-6.325301546E-1,1.681955008E0
7.683757208E0,-8.507628608E-1,9.603214826E-1,-9.194945419E-1,1.578443856E0
7.693729208E0,-4.530060160E-1,8.784701114E-1,-1.105809929E0,1.483151977E0
7.703700208E0,-4.395527422E-2,7.215557671E-1,-1.324093506E0,1.508574958E0
7.713672208E0,2.389792120E-1,5.783400603E-1,-1.696876893E0,1.808584938E0
7.723644208E0,3.790673894E-1,5.127013370E-1,-1.854333639E0,1.960894692E0
7.733616208E0,3.125781155E-1,4.581774032E-1,-1.668329032E0,1.758110739E0
7.743588208E0,2.371279836E-1,4.959257483E-1,-1.076148466E0,1.208415305E0
7.753559208E0,5.285532117E-2,6.208466868E-1,-1.701225467E-1,6.458993531E-1
7.763531208E0,-1.917617762E-1,7.598706709E-1,6.186897951E-1,9.984753767E-1
7.773503208E0,-1.616071004E-1,9.151978616E-1,7.645731479E-1,1.203443426E0
7.783475208E0,3.083114022E-1,1.113764993E0,4.273130581E-1,1.232122084E0
7.793447208E0,9.182631183E-1,1.051634453E0,-1.482327640E-1,1.403964077E0
7.803419208E0,1.420527248E0,7.590372965E-1,-6.276050448E-1,1.728561070E0
7.813390208E0,1.881802981E0,5.133610856E-1,-9.681041998E-1,2.177601388E0
7.823362208E0,2.183062057E0,3.904223898E-1,-1.421532385E0,2.634187523E0
7.833334208E0,2.412869911E0,5.853679384E-1,-1.926768362E0,3.142774754E0
7.843306208E0,2.535889481E0,1.182870238E0,-2.191965027E0,3.554522210E0
7.853278208E0,2.572901187E0,2.310183741E0,-1.303032859E0,3.695221788E0
7.863249208E0,2.487892027E0,2.897742668E0,-8.140993568E-1,3.905032275E0
7.873221208E0,2.349589005E0,2.004058174E0,-1.302652643E0,3.351674442E0
7.883193208E0,2.571527091E0,7.285293026E-1,-4.628813785E-1,2.712520174E0
7.893165208E0,3.134712192E0,4.715074103E-2,1.517202627E0,3.482893557E0
7.903137208E0,3.384567810E0,1.208106565E-1,2.701824691E0,4.332407083E0
7.913108208E0,2.872411360E0,1.333602248E-1,2.538825661E0,3.835905070E0
7.923080208E0,2.253908676E0,1.041791835E-1,1.640717602E0,2.789787066E0
7.933052208E0,2.200052311E0,5.531167799E-1,1.170787990E0,2.552824487E0
7.943024208E0,1.944392163E0,8.794837262E-1,1.177062052E0,2.437135118E0
7.952996208E0,1.141996885E0,8.503793565E-1,1.259003471E0,1.900629284E0
7.962968208E0,1.571480137E-1,7.386448395E-1,1.175404952E0,1.397092874E0
7.972939208E0,-8.241007268E-1,5.874449059E-1,9.963056132E-1,1.420161399E0
7.982911208E0,-1.835635121E0,2.416425457E-1,7.519253281E-1,1.998334085E0
7.992883208E0,-2.703999855E0,-1.701197327E-1,5.827779508E-1,2.771314865E0
8.002855208E0,-3.244090793E0,-6.525634463E-1,6.317586145E-1,3.368840018E0
8.012827208E0,-3.471871417E0,-1.144546271E0,8.612665066E-1,3.755749898E0
8.022798208E0,-3.460399765E0,-1.604534740E0,1.259781151E0,4.016957407E0
8.032770208E0,-3.326046537E0,-2.034579032E0,1.668869314E0,4.241134540E0
8.042742208E0,-3.083397612E0,-2.308288805E0,1.984799639E0,4.333009075E0
8.052714208E0,-2.680801027E0,-2.366453105E0,2.205938996E0,4.201542728E0
8.062686208E0,-2.053451505E0,-2.185816680E0,2.431157371E0,3.860697321E0
8.072658208E0,-1.284056159E0,-1.634328496E0,2.631746396E0,3.353493543E0
8.082629208E0,-7.217604196E-1,-1.031974067E0,2.686112053E0,2.966665896E0
8.092601208E0,-4.243529052E-1,-3.748494273E-1,2.537140785E0,2.599552047E0
8.102573208E0,-1.629560530E-1,3.925058258E-1,2.223915968E0,2.264159387E0
8.112545208E0,1.108807504E-1,1.234962351E0,1.651440226E0,2.065110499E0
8.122517208E0,3.539781564E-1,1.956630970E0,7.884911835E-1,2.139023991E0
8.132488208E0,5.672220182E-1,2.320680224E0,1.430416059E-1,2.393273579E0
8.142460208E0,5.678418231E-1,2.163843136E0,-3.293765813E-1,2.261227628E0
8.152432208E0,2.479283756E-1,1.461891037E0,-8.775691286E-1,1.722997811E0
8.162404208E0,-2.151763666E-1,5.365135380E-1,-1.313493674E0,1.435065600E0
8.172376208E0,-5.450365126E-1,-6.828473456E-2,-1.349644669E0,1.457143897E0
8.182347583E0,-7.552760750E-1,-3.857909565E-1,-1.211458299E0,1.478819739E0
8.192319583E0,-9.892003691E-1,-7.612265671E-1,-1.145647594E0,1.694252539E0
8.202291583E0,-1.178032690E0,-1.211767689E0,-1.056684254E0,1.993169227E0
8.212263583E0,-1.296122473E0,-1.560362534E0,-1.021128213E0,2.270983824E0
8.222235583E0,-1.397276965E0,-1.850546106E0,-9.850140551E-1,2.519356365E0
8.232206583E0,-1.412255192E0,-2.009055936E0,-9.317643392E-1,2.626586238E0
8.242178583E0,-1.322940727E0,-2.048476256E0,-8.093078560E-1,2.569320211E0
8.252150583E0,-1.157432365E0,-1.972415967E0,-6.673199183E-1,2.382307767E0
8.262122583E0,-9.861750197E-1,-1.856733044E0,-5.439407444E-1,2.171605466E0
8.272094583E0,-8.184990942E-1,-1.646948103E0,-4.519125867E-1,1.893833099E0
8.282066583E0,-7.318597305E-1,-1.438947439E0,-4.642478728E-1,1.679795966E0
8.292037583E0,-7.558379924E-1,-1.271583463E0,-4.769547495E-1,1.554252684E0
8.302009583E0,-8.236522454E-1,-1.161434126E0,-5.318782309E-1,1.519942993E0
8.311981583E0,-8.641711110E-1,-9.916491099E-1,-6.091012385E-1,1.449539232E0
8.321953583E0,-8.861221433E-1,-8.434993033E-1,-6.578026977E-1,1.389031287E0
8.331925583E0,-7.827562344E-1,-5.633572645E-1,-6.284695557E-1,1.151109340E0
8.341896583E0,-5.607199144E-1,-1.208577083E-1,-6.500370106E-1,8.669264809E-1
8.351868583E0,-3.187510210E-1,2.656045085E-1,-5.831434017E-1,7.156844244E-1
8.361840583E0,-1.609446108E-2,6.959932020E-1,-5.017027974E-1,8.581207758E-1
8.371812583E0,2.068364829E-1,9.384234408E-1,-3.032810426E-1,1.007670222E0
8.381784583E0,4.847885567E-1,1.249360828E0,-1.642237294E-1,1.350145124E0
8.391755583E0,6.567475677E-1,1.307502763E0,-2.780234098E-2,1.463439036E0
8.401727583E0,7.273357397E-1,1.188102107E0,-2.117978454E-2,1.393216594E0
8.411699583E0,7.846869850E-1,7.482597817E-1,-1.112684208E-1,1.089957351E0
8.421671583E0,7.175241119E-1,-7.305365056E-3,-1.121949121E-1,7.262795039E-1
8.431643583E0,7.734919059E-1,-6.534937383E-1,-2.504105186E-1,1.043095979E0
8.441614583E0,9.763119364E-1,-1.128643672E0,-5.211941984E-1,1.580716587E0
8.451586583E0,1.301501911E0,-1.587164855E0,-8.625929475E-1,2.226446966E0
8.461558583E0,1.722702582E0,-2.215166633E0,-9.350010654E-1,2.957853004E0
8.471530583E0,2.436974473E0,-2.510762534E0,-5.445348215E-1,3.541086169E0
8.481502583E0,3.309999438E0,-2.294396551E0,-3.395380189E-1,4.041736988E0
8.491473583E0,4.086633638E0,-2.039594189E0,-3.765022159E-1,4.582823678E0
8.501445583E0,4.383028999E0,-1.818901851E0,-5.699819040E-1,4.779563424E0
8.511417583E0,3.733424975E0,-1.804297115E0,-8.264507228E-1,4.228116710E0
8.521389583E0,2.918804339E0,-1.997138287E0,-8.073086929E-1,3.627633861E0
8.531361583E0,3.018984684E0,-1.503729326E0,-1.913042316E-1,3.378175206E0
8.541332583E0,3.138633335E0,-1.008908848E0,5.842961803E-1,3.348181342E0
8.551304583E0,2.833228583E0,-1.008114431E0,1.231605465E0,3.249666280E0
8.561276583E0,2.395931112E0,-8.891476388E-1,1.704374777E0,3.071801230E0
8.571248583E0,1.830453903E0,-4.908123217E-1,1.763683963E0,2.588829725E0
8.581220583E0,9.835040116E-1,-9.208447371E-2,1.755147613E0,2.014026523E0
8.591191583E0,-9.551192880E-2,2.954849499E-1,1.724449146E0,1.752186845E0
8.601163583E0,-1.047930973E0,7.888614585E-1,1.724084864E0,2.166317230E0
8.611135583E0,-1.945366309E0,1.249968938E0,1.721143130E0,2.882569356E0
8.621107583E0,-2.774177552E0,1.652564061E0,1.599098291E0,3.603351830E0
8.631079583E0,-3.392275609E0,2.097374912E0,1.489351900E0,4.257309528E0
8.641050583E0,-3.812982776E0,2.569260710E0,1.449141183E0,4.820782967E0
8.651022583E0,-4.018701856E0,2.986040010E0,1.362143677E0,5.188625535E0
8.660994583E0,-4.040561671E0,3.287223364E0,1.345827899E0,5.379891151E0
8.670966583E0,-3.832265139E0,3.395064731E0,1.322285255E0,5.287831211E0
8.680938583E0,-3.350309558E0,3.037710392E0,1.522863755E0,4.771935936E0
8.690910583E0,-2.484047483E0,2.284543993E0,2.017882600E0,3.932109274E0
8.700881583E0,-1.467780937E0,1.344649685E0,2.449936288E0,3.156683619E0
8.710853583E0,-5.957219321E-1,2.029787824E-1,2.370218274E0,2.452349826E0
8.720825583E0,7.471922994E-2,-1.022363145E0,1.838235085E0,2.104736941E0
8.730797583E0,5.674752027E-1,-2.107387684E0,1.203189751E0,2.492142960E0
8.740769583E0,9.994008368E-1,-2.805880279E0,5.665519273E-1,3.031954363E0
8.750740583E0,1.215213380E0,-2.982584890E0,-3.257872680E-1,3.237081020E0
8.760712583E0,1.216774002E0,-2.514965512E0,-1.444356991E0,3.145116471E0
8.770684583E0,1.434505602E0,-1.535450618E0,-2.577290984E0,3.325333628E0
8.780656583E0,1.458565140E0,-7.592151980E-1,-3.478553323E0,3.847616562E0
8.790628583E0,8.519527692E-1,-4.557477389E-1,-3.664335736E0,3.789575954E0
8.800599583E0,-1.572257817E-2,-3.177520242E-1,-2.934593283E0,2.951787811E0
8.810571583E0,-8.231394446E-1,-1.351799149E-1,-2.119781150E0,2.278004451E0
8.820543583E0,-1.362695947E0,2.184597609E-1,-1.591684606E0,2.106685737E0
8.830515583E0,-1.683944314E0,6.770970476E-1,-1.192637281E0,2.171753335E0
8.840487583E0,-1.785332694E0,1.187785115E0,-9.168141782E-1,2.332122326E0
8.850458583E0,-1.740817841E0,1.712500068E0,-7.604637247E-1,2.557617703E0
8.860430583E0,-1.628951250E0,2.094951387E0,-6.611014044E-1,2.734841597E0
8.870402583E0,-1.546249986E0,2.258092797E0,-6.304304194E-1,2.808436329E0
8.880374583E0,-1.470419785E0,2.218144620E0,-6.097833163E-1,2.730226290E0
8.890346583E0,-1.354253737E0,1.988402254E0,-6.180866548E-1,2.483903746E0
8.900317583E0,-1.154753755E0,1.621484064E0,-7.383771832E-1,2.123173961E0
8.910289583E0,-8.848924738E-1,1.152525528E0,-8.721902749E-1,1.694716985E0
8.920261583E0,-7.084188277E-1,6.876737105E-1,-1.059391661E0,1.448123979E0
8.930233583E0,-6.045447958E-1,3.400462881E-1,-1.253907476E0,1.432965403E0
8.940205583E0,-5.460229379E-1,1.400683882E-1,-1.276685159E0,1.395594926E0
8.950176583E0,-5.279334068E-1,9.465375854E-2,-1.104644287E0,1.227970690E0
8.960148583E0,-5.409691894E-1,1.693426012E-1,-7.754963315E-1,9.605827089E-1
8.970120583E0,-5.804454964E-1,2.260263503E-1,-4.342987266E-1,7.593551668E-1
8.980092583E0,-5.634546572E-1,3.286214865E-1,-1.653137966E-1,6.729055531E-1
8.990063583E0,-3.708736861E-1,5.191607926E-1,2.645572722E-3,6.380299513E-1
9.000035583E0,-1.102024734E-2,6.858998846E-1,2.061909503E-1,7.163063628E-1
9.010007583E0,5.059823745E-1,8.124158704E-1,4.664749311E-1,1.064723706E0
9.019979583E0,9.915901262E-1,7.847428259E-1,4.452308272E-1,1.340635212E0
9.029951583E0,1.391771811E0,6.600115565E-1,3.188428223E-2,1.540668893E0
9.039923583E0,1.799023950E0,5.060566342E-1,-5.365101027E-1,1.944331139E0
9.049894583E0,2.207932604E0,4.019697636E-1,-1.092356363E0,2.495954426E0
9.059866583E0,2.444360676E0,4.072436598E-1,-1.710049793E0,3.010816634E0
9.069838583E0,2.448488810E0,6.055882314E-1,-2.330819588E0,3.434320095E0
9.079810583E0,2.331681907E0,1.132320035E0,-2.667141931E0,3.719211644E0
9.089781583E0,2.206090731E0,1.832211430E0,-2.323352402E0,3.690772469E0
9.099753583E0,2.116613714E0,2.322927455E0,-1.390116464E0,3.436345349E0
9.109725583E0,2.033572726E0,2.250219375E0,-5.816541159E-1,3.088240078E0
9.119697583E0,2.258810982E0,1.894381219E0,5.071904093E-1,2.991345745E0
9.129669583E0,2.767578385E0,1.929678521E0,1.730720869E0,3.791905067E0
9.139640583E0,3.173054724E0,2.496627475E0,2.857984233E0,4.946665433E0
9.149612583E0,2.907705739E0,2.930968594E0,3.489068663E0,5.405453699E0
9.159584583E0,2.260876803E0,2.948278983E0,3.532669596E0,5.126759928E0
9.169556583E0,1.475240815E0,2.905578521E0,3.289461678E0,4.630257027E0
9.179528583E0,5.768172991E-1,3.000111626E0,2.958543770E0,4.252807215E0
9.189498833E0,-3.330082870E-1,2.951037700E0,2.596314608E0,3.944663175E0
9.199470833E0,-1.406896804E0,2.620842508E0,2.145890138E0,3.667835677E0
9.209442833E0,-2.393192861E0,2.192867253E0,1.762122025E0,3.693387726E0
9.219414833E0,-3.144613282E0,1.741889636E0,1.684085231E0,3.969750025E0
9.229386833E0,-3.652203641E0,1.190851907E0,1.838949907E0,4.258926679E0
9.239357833E0,-3.813593810E0,5.765645167E-1,2.164639819E0,4.422848622E0
9.249329833E0,-3.412659588E0,1.333405636E-1,2.605739442E0,4.295800648E0
9.259301833E0,-2.623643909E0,-4.362114239E-2,3.104867418E0,4.065170581E0
9.269273833E0,-1.681560988E0,-5.479060337E-3,3.533498731E0,3.913219986E0
9.279245833E0,-7.237315160E-1,2.572747113E-1,3.723855422E0,3.802246281E0
9.289216833E0,1.186440986E-1,5.446678822E-1,3.734182189E0,3.775560375E0
9.299188833E0,8.185043567E-1,8.559423244E-1,3.647707717E0,3.835147746E0
9.309160833E0,1.379727716E0,1.245033011E0,3.448412388E0,3.917308230E0
9.319132833E0,1.567350833E0,1.579676179E0,2.974364582E0,3.714674970E0
9.329103833E0,1.208504870E0,1.658297695E0,2.153507159E0,2.974563556E0
9.339075833E0,6.251585698E-1,1.598355256E0,1.320884262E0,2.165709582E0
9.349047833E0,1.741903085E-1,1.616352693E0,7.012517492E-1,1.770506229E0
9.359019833E0,-1.997625214E-1,1.717090717E0,3.969078290E-1,1.773652001E0
9.368991833E0,-7.978227550E-1,1.674963721E0,2.694040293E-1,1.874727486E0
9.378962833E0,-1.463967968E0,1.431378804E0,1.233236253E-1,2.051159722E0
9.388934833E0,-1.992149296E0,1.087870525E0,3.338672429E-2,2.270073957E0
9.398906833E0,-2.306866908E0,8.035365079E-1,4.865789741E-2,2.443291518E0
9.408878833E0,-2.408451755E0,5.860760362E-1,4.234518492E-1,2.514644397E0
9.418850833E0,-2.355889964E0,5.535157793E-1,1.029376003E0,2.629869236E0
9.428821833E0,-2.249271249E0,5.555438495E-1,1.456428275E0,2.736609845E0
9.438793833E0,-2.052086765E0,5.463793257E-1,1.963306151E0,2.892086012E0
9.448765833E0,-1.938168971E0,5.855698866E-1,2.281138282E0,3.050079165E0
9.458737833E0,-1.914287188E0,6.430145046E-1,2.267615719E0,3.036452558E0
9.468709833E0,-1.921064696E0,5.870448102E-1,1.991209941E0,2.828432111E0
9.478680833E0,-1.809931930E0,4.283282078E-1,1.776572396E0,2.572066897E0
9.488652833E0,-1.477320669E0,2.233180114E-1,1.841646643E0,2.371499452E0
9.498624833E0,-1.143332974E0,3.066950491E-2,1.970112895E0,2.278046471E0
9.508596833E0,-8.075425816E-1,-5.883535998E-2,1.957370058E0,2.118226655E0
9.518567833E0,-4.770310557E-1,2.796421750E-2,1.624141915E0,1.692978909E0
9.528539833E0,-1.531806779E-1,2.638409152E-1,1.201482949E0,1.239611885E0
9.538511833E0,8.663468599E-2,5.387700151E-1,7.354774028E-1,9.158087726E-1
9.548483833E0,1.579865044E-1,6.569799945E-1,2.934852022E-1,7.366926175E-1
9.558455833E0,1.510458595E-1,4.939724860E-1,5.551521957E-2,5.195244057E-1
9.568426833E0,1.428597575E-1,2.378503522E-1,-3.199596405E-2,2.792945436E-1
9.578398833E0,1.538928688E-1,-8.718381263E-4,-5.539827526E-2,1.635626610E-1
9.588370833E0,5.376573265E-2,-2.467702066E-1,-4.506098270E-2,2.565478144E-1
9.598342833E0,-1.165250677E-1,-4.610673164E-1,8.723139435E-2,4.834981674E-1
9.608314833E0,-3.110578394E-1,-7.198104463E-1,2.368645665E-1,8.191391096E-1
9.618285833E0,-3.478315634E-1,-8.813384631E-1,4.688472927E-1,1.057148082E0
9.628257833E0,-2.615442020E-1,-9.207890423E-1,7.629809511E-1,1.224090586E0
9.638229833E0,-2.034936297E-1,-9.278609573E-1,9.926914492E-1,1.373962127E0
9.648201833E0,-9.929215372E-2,-8.940014125E-1,1.147833283E0,1.458293079E0
9.658172833E0,1.718028903E-2,-8.346075156E-1,1.179352114E0,1.444900093E0
9.668144833E0,2.049829155E-1,-7.030108110E-1,1.127348733E0,1.344305531E0
9.678116833E0,3.140036666E-1,-5.763990039E-1,1.040156515E0,1.229942962E0
9.688088833E0,3.681746113E-1,-4.545312257E-1,9.037091061E-1,1.076494927E0
9.698060833E0,3.524941331E-1,-3.262694075E-1,6.496850082E-1,8.079569605E-1
9.708031833E0,3.162969446E-1,-1.435159522E-1,2.878666127E-1,4.511183574E-1
9.718003833E0,2.967543805E-1,-1.439876854E-5,-4.475517333E-2,3.001102932E-1
9.727975833E0,5.210839784E-1,3.562426734E-1,-2.159256873E-1,6.671291160E-1
9.737947833E0,1.016653047E0,1.224170145E0,-3.401120692E-1,1.627222229E0
9.747919833E0,1.226628900E0,1.933290493E0,-2.826994282E-1,2.306978447E0
9.757890833E0,1.331039706E0,2.518155169E0,1.261677110E-1,2.851085836E0
9.767862833E0,1.523841117E0,3.169256080E0,5.379950032E-1,3.557487101E0
9.777834833E0,1.452657114E0,3.479338604E0,9.464616081E-1,3.887389791E0
9.787806833E0,1.048647841E0,3.175177848E0,1.536364099E0,3.679922731E0
9.797777833E0,5.461229253E-1,2.469923826E0,2.320788544E0,3.432904516E0
9.807749833E0,-7.367725611E-2,1.413985384E0,3.134455499E0,3.439417724E0
9.817721833E0,-6.657815158E-1,2.674771524E-1,3.704573936E0,3.773417165E0
9.827693833E0,-1.156928335E0,-5.370556114E-1,3.832248474E0,4.038940488E0
9.837665833E0,-1.618450820E0,-9.546387930E-1,3.506903840E0,3.978579247E0
9.847636833E0,-2.017791091E0,-1.036936307E0,2.944727092E0,3.717275271E0
9.857608833E0,-2.180363567E0,-7.786775091E-1,2.681512048E0,3.542715175E0
9.867580833E0,-2.103486130E0,-1.909083020E-1,2.792010391E0,3.500917294E0
9.877552833E0,-1.964014834E0,5.069487000E-1,3.152048017E0,3.748300675E0
9.887524833E0,-1.830546874E0,1.358306442E0,3.193462676E0,3.923531841E0
9.897495833E0,-1.773466355E0,2.184576924E0,2.806543061E0,3.974197177E0
9.907467833E0,-1.643789729E0,2.784963326E0,2.561106768E0,4.125207059E0
9.917439833E0,-1.349464867E0,3.148864793E0,2.503744998E0,4.243246861E0
9.927411833E0,-9.955311495E-1,3.083719794E0,2.289972548E0,3.967919392E0
9.937382833E0,-6.106025112E-1,2.486714105E0,1.737673209E0,3.094525917E0
9.947354833E0,-1.780009389E-2,1.507252274E0,8.508681107E-1,1.730925418E0
9.957326833E0,7.943518478E-1,4.233289115E-1,-4.004208362E-1,9.851594142E-1
9.967298833E0,1.574058759E0,-4.201020525E-1,-1.211381115E0,2.030170170E0
9.977270833E0,1.987781426E0,-7.251757783E-1,-1.578351200E0,2.639762758E0
9.987241833E0,1.941883707E0,-4.395841710E-1,-1.523444676E0,2.506996262E0
9.997213833E0,1.306557999E0,7.872194141E-2,-1.416128388E0,1.928395851E0
1.000718583E1,4.419384062E-1,5.174644057E-1,-1.232962019E0,1.408287721E0
1.001715783E1,-2.908603871E-1,8.776056737E-1,-7.095941180E-1,1.165467844E0
1.002712883E1,-8.685372269E-1,1.114547789E0,-1.604072517E-1,1.422077415E0
1.003710083E1,-1.250274455E0,1.279756555E0,2.228464517E-1,1.802948583E0
1.004707283E1,-1.471399194E0,1.384352864E0,3.614383265E-1,2.052336742E0
1.005704483E1,-1.587212656E0,1.381761524E0,2.040377131E-1,2.114270634E0
1.006701683E1,-1.686542231E0,1.298364003E0,-1.256449699E-2,2.128457575E0
1.007698783E1,-1.698269992E0,1.197999470E0,-1.587413800E-1,2.084351823E0
1.008695983E1,-1.676815388E0,9.751160346E-1,-2.407947725E-1,1.954620999E0
1.009693183E1,-1.599608753E0,6.656085844E-1,-3.851531714E-1,1.774859407E0
1.010690383E1,-1.428053784E0,3.514832957E-1,-6.226641476E-1,1.597056279E0
1.011687483E1,-1.100691569E0,4.854387671E-2,-8.958764684E-1,1.420025734E0
1.012684683E1,-6.512231183E-1,-2.068984634E-1,-1.269274397E0,1.441511713E0
1.013681883E1,-1.716204572E-1,-4.570382559E-1,-1.642831371E0,1.713835599E0
1.014679083E1,3.478859425E-1,-6.308486415E-1,-2.007963091E0,2.133286294E0
1.015676283E1,8.006750268E-1,-6.277342683E-1,-2.166911463E0,2.393874704E0
1.016673383E1,1.072110963E0,-5.002961035E-1,-2.235931704E0,2.529645962E0
1.017670583E1,1.092395539E0,-3.119150412E-1,-2.365168911E0,2.623860321E0
1.018667871E1,8.944965255E-1,-1.502159934E-1,-2.353851040E0,2.522558938E0
1.019665071E1,6.536561447E-1,2.643818557E-3,-2.253787639E0,2.346664029E0
1.020662171E1,3.629600644E-1,1.124733858E-1,-2.205862397E0,2.238351891E0
1.021659371E1,1.586425620E-1,2.624875040E-1,-2.264380454E0,2.285057110E0
1.022656571E1,1.402559924E-1,3.924445032E-1,-2.434137404E0,2.469556505E0
1.023653771E1,2.218375146E-1,4.341550313E-1,-2.556778075E0,2.602847786E0
1.024650971E1,4.553489953E-1,4.373193982E-1,-2.530170027E0,2.607748326E0
1.025648071E1,7.383179802E-1,5.031917909E-1,-2.341886175E0,2.506540699E0
1.026645271E1,1.060409516E0,6.933543536E-1,-2.086873021E0,2.441361834E0
1.027642471E1,1.359429107E0,9.575678095E-1,-2.123226330E0,2.696863670E0
1.028639671E1,1.586502219E0,1.333770648E0,-2.212810351E0,3.031907499E0
1.029636771E1,1.895923423E0,1.685155564E0,-2.116541793E0,3.303638004E0
1.030633971E1,2.160394741E0,2.109184534E0,-2.186268670E0,3.727698423E0
1.031631171E1,2.499843151E0,2.962623957E0,-1.704161062E0,4.234444641E0
1.032628371E1,2.747175111E0,3.598794004E0,-1.312543793E0,4.713921995E0
1.033625571E1,2.738182093E0,3.785808426E0,-5.919849765E-1,4.709610687E0
1.034622671E1,2.745925561E0,3.925440228E0,7.237528583E-1,4.844894877E0
1.035619871E1,2.638235636E0,3.977871918E0,1.856926587E0,5.121711493E0
1.036617071E1,2.192520513E0,3.598813300E0,1.966491422E0,4.650343200E0
1.037614271E1,1.656852409E0,2.912153423E0,8.540045571E-1,3.457617858E0
1.038611371E1,1.353838584E0,2.043871573E0,-4.437054348E-1,2.491418157E0
1.039608571E1,7.992833894E-1,1.103198563E0,-3.280340606E-1,1.401252065E0
1.040605771E1,3.096159160E-2,5.390811235E-1,-1.044137299E-1,5.499720946E-1
1.041602971E1,-6.675783652E-1,2.805456063E-1,8.925189972E-3,7.241866955E-1
1.042600171E1,-1.225987460E0,1.798890779E-1,1.350046080E-1,1.246447583E0
1.043597271E1,-1.652172298E0,1.290083615E-1,3.498821819E-1,1.693733745E0
1.044594471E1,-1.947109948E0,-3.896613747E-2,7.882368296E-1,2.100969493E0
1.045591671E1,-2.095184838E0,-2.860644277E-1,1.331130338E0,2.498707733E0
1.046588871E1,-2.184253135E0,-5.538253163E-1,1.818954184E0,2.895907209E0
1.047585971E1,-2.056014925E0,-8.024028059E-1,2.138908562E0,3.073430896E0
1.048583171E1,-1.814243082E0,-1.038357473E0,2.321502489E0,3.123945904E0
1.049580371E1,-1.533848042E0,-1.302303565E0,2.377117111E0,3.114381182E0
1.050577571E1,-1.213284969E0,-1.533654499E0,2.227143631E0,2.963836246E0
1.051574671E1,-8.405735028E-1,-1.568222799E0,1.891354993E0,2.596749944E0
1.052571871E1,-4.222894228E-1,-1.264904189E0,1.621680822E0,2.099561776E0
1.053569071E1,-2.107242966E-1,-7.858786476E-1,1.582683695E0,1.779577943E0
1.054566271E1,-2.379103410E-1,-3.359633601E-1,1.489523224E0,1.545364728E0
1.055563471E1,-3.322463948E-1,1.309479560E-1,1.465435034E0,1.508321873E0
1.056560571E1,-4.169281107E-1,5.641202531E-1,1.510856790E0,1.665757770E0
1.057557771E1,-5.000813645E-1,9.416261069E-1,1.450082877E0,1.799855952E0
1.058554971E1,-5.411563003E-1,1.314432590E0,1.245702809E0,1.890068429E0
1.059552171E1,-5.288157517E-1,1.622696191E0,8.620561731E-1,1.912048607E0
1.060549271E1,-5.282076412E-1,1.821700475E0,2.615804547E-1,1.914685423E0
1.061546471E1,-5.052579045E-1,1.815864808E0,-3.258045173E-1,1.912798770E0
1.062543671E1,-4.988949645E-1,1.647667749E0,-7.191496378E-1,1.865712035E0
1.063540871E1,-4.840401131E-1,1.385168258E0,-7.625883105E-1,1.653640489E0
1.064537971E1,-5.308763105E-1,1.000708640E0,-6.116146642E-1,1.287369386E0
1.065535171E1,-6.025573272E-1,5.641462732E-1,-4.898399663E-1,9.598330806E-1
1.066532371E1,-6.581889063E-1,1.343819527E-1,-3.170439264E-1,7.428243378E-1
1.067529571E1,-6.943650448E-1,-2.617888714E-1,-1.334562653E-1,7.539806386E-1
1.068526771E1,-7.258984941E-1,-6.031912384E-1,-5.635546446E-3,9.438220453E-1
1.069523871E1,-6.920852154E-1,-8.651644067E-1,-1.065713525E-2,1.107973362E0
1.070521071E1,-5.706496561E-1,-9.689640328E-1,-6.638256222E-2,1.126471913E0
1.071518271E1,-3.584933764E-1,-9.495998818E-1,-9.502631754E-2,1.019454480E0
1.072515471E1,-1.513890910E-1,-9.083632705E-1,-1.598523510E-1,9.346631812E-1
1.073512571E1,6.526486695E-2,-8.011758408E-1,-3.164612514E-1,8.638807524E-1
1.074509771E1,2.397183001E-1,-6.776273169E-1,-4.794740224E-1,8.640248736E-1
1.075506971E1,2.609805304E-1,-5.130058673E-1,-6.115485907E-1,8.398080351E-1
1.076504171E1,2.095899367E-1,-2.517892738E-1,-8.249930120E-1,8.876594222E-1
1.077501271E1,2.059833741E-1,5.537918958E-2,-1.080923010E0,1.101767016E0
1.078498471E1,1.458675653E-1,3.769361524E-1,-1.337882702E0,1.397600921E0
1.079495671E1,1.110023725E-1,6.114447295E-1,-1.517312116E0,1.639640888E0
1.080492871E1,1.348870790E-1,8.092424402E-1,-1.630731143E0,1.825473065E0
1.081490071E1,1.224623305E-1,9.391652332E-1,-1.666214971E0,1.916585685E0
1.082487171E1,9.200710773E-2,9.931194654E-1,-1.697174808E0,1.968541061E0
1.083484371E1,-1.405963004E-2,8.665727817E-1,-1.778985541E0,1.978872309E0
1.084481571E1,-1.517504489E-1,5.972440719E-1,-1.700891299E0,1.809077082E0
1.085478771E1,-2.814364296E-1,2.525495763E-1,-1.563956525E0,1.609020747E0
1.086475871E1,-4.006611568E-1,-1.999249461E-1,-1.420916673E0,1.489799832E0
1.087473071E1,-4.291867983E-1,-6.567610162E-1,-1.172180212E0,1.410511535E0
1.088470271E1,-3.970697969E-1,-1.061259481E0,-8.681837627E-1,1.427472997E0
1.089467471E1,-2.492334741E-1,-1.339126259E0,-6.668696827E-1,1.516605300E0
1.090464571E1,4.964695394E-2,-1.482935750E0,-4.969162667E-1,1.564764850E0
1.091461771E1,4.575697678E-1,-1.433206058E0,-4.334967810E-1,1.565684884E0
1.092458971E1,9.186086887E-1,-1.171373589E0,-5.126096088E-1,1.574397224E0
1.093456171E1,1.295429578E0,-8.155170874E-1,-6.639370117E-1,1.668537763E0
1.094453371E1,1.568355970E0,-4.314476608E-1,-8.415356621E-1,1.831411970E0
1.095450471E1,1.744189346E0,-1.240683779E-1,-1.025510701E0,2.027131381E0
1.096447671E1,1.771201728E0,8.922140284E-2,-1.156161765E0,2.117032368E0
1.097444871E1,1.684365313E0,1.907213007E-1,-1.291204087E0,2.130884586E0
1.098442071E1,1.510898890E0,2.025982383E-1,-1.501115329E0,2.139441219E0
1.099439171E1,1.376728680E0,1.101673901E-2,-1.430770401E0,1.985599951E0
1.100436371E1,1.452673486E0,-4.387207200E-1,-4.424190474E-1,1.580655162E0
1.101433571E1,2.045743121E0,-2.277156840E-1,2.568775392E-1,2.074344576E0
1.102430771E1,2.652516291E0,4.114722200E-1,-1.063658229E-1,2.686348032E0
1.103427871E1,2.946210238E0,6.617033753E-1,-9.492896140E-2,3.021095436E0
1.104425071E1,2.949687577E0,5.333397424E-1,4.407508367E-1,3.029747413E0
1.105422271E1,2.892179627E0,5.127870718E-1,7.225992027E-1,3.024864159E0
1.106419471E1,2.924129398E0,5.638304870E-1,7.295737615E-1,3.066058614E0
1.107416571E1,2.839897333E0,4.055934294E-1,9.059947827E-1,3.008379869E0
1.108413771E1,2.352873970E0,1.066438762E-1,1.437762794E0,2.759447533E0
1.109410971E1,1.565370381E0,-1.512195218E-1,1.911729616E0,2.475472056E0
1.110408171E1,5.472362351E-1,-3.574611966E-1,2.051169337E0,2.152798563E0
1.111405271E1,-5.995886958E-1,-5.212181355E-1,1.986159993E0,2.139160225E0
1.112402471E1,-1.534386570E0,-5.075845482E-1,1.789536257E0,2.411311726E0
1.113399671E1,-2.278125504E0,-2.389349925E-1,1.444694960E0,2.708152372E0
1.114396871E1,-2.937043558E0,2.140487310E-1,1.017616083E0,3.115699635E0
1.115394071E1,-3.484798442E0,7.810120100E-1,6.913905662E-1,3.637556990E0
1.116391171E1,-3.891633673E0,1.403959601E0,6.530275691E-1,4.188360087E0
1.117388371E1,-4.111319413E0,2.064434769E0,8.421148288E-1,4.676964359E0
1.118385558E1,-4.186963087E0,2.648927562E0,9.622850507E-1,5.047124889E0
1.119382758E1,-4.124227141E0,3.025185657E0,8.552541071E-1,5.185793802E0
1.120379858E1,-3.872272958E0,3.239553938E0,7.137269300E-1,5.098883574E0
1.121377058E1,-3.420146363E0,2.912696045E0,1.102269440E0,4.625602373E0
1.122374258E1,-2.589538270E0,2.246000171E0,1.859976787E0,3.899966521E0
1.123371458E1,-1.440846323E0,1.423400570E0,2.461280179E0,3.187476655E0
1.124368558E1,-1.800287533E-1,3.203682512E-1,2.575803452E0,2.601885777E0
1.125365758E1,8.790078360E-1,-1.063424705E0,2.040226858E0,2.462935750E0
1.126362958E1,1.630565082E0,-2.448562924E0,9.723416770E-1,3.098330391E0
1.127360158E1,2.305249568E0,-3.432687179E0,-8.165046090E-1,4.214759378E0
1.128357258E1,2.913167623E0,-3.663343464E0,-2.274006141E0,5.203627087E0
1.129354458E1,3.346267378E0,-2.853453810E0,-3.017722563E0,5.333512302E0
1.130351658E1,3.155479163E0,-1.800914939E0,-3.261402059E0,4.882323909E0
1.131348858E1,2.190951120E0,-1.288545066E0,-2.516667637E0,3.576902458E0
1.132345958E1,9.751378155E-1,-1.046695017E0,-1.641332729E0,2.177254544E0
1.133343158E1,-8.657562912E-2,-6.838083355E-1,-1.465071630E0,1.619112121E0
1.134340358E1,-1.010959028E0,-2.789633863E-1,-1.417120076E0,1.762977038E0
1.135337558E1,-1.705964343E0,1.748200901E-1,-1.513728942E0,2.287411575E0
1.136334758E1,-2.147774110E0,5.985622171E-1,-1.684756199E0,2.794568627E0
1.137331858E1,-2.386503646E0,1.030770126E0,-1.720062565E0,3.117130400E0
1.138329058E1,-2.503471348E0,1.420285758E0,-1.570519147E0,3.278888656E0
1.139326258E1,-2.543252295E0,1.612427896E0,-1.349365757E0,3.299824829E0
1.140323458E1,-2.493237551E0,1.644179739E0,-1.268002043E0,3.244593917E0
1.141320558E1,-2.324438961E0,1.642608592E0,-1.362649169E0,3.155628658E0
1.142317758E1,-1.962442517E0,1.679877429E0,-1.544261933E0,3.009636810E0
1.143314958E1,-1.407193258E0,1.675771514E0,-1.752488299E0,2.803501074E0
1.144312158E1,-7.544516176E-1,1.590090217E0,-1.997955874E0,2.662594940E0
1.145309258E1,-1.809917897E-1,1.360521075E0,-2.232078389E0,2.620295700E0
1.146306458E1,1.991164041E-1,1.011417596E0,-2.243442745E0,2.468936663E0
1.147303658E1,5.146689981E-1,5.703331755E-1,-2.144839101E0,2.278266638E0
1.148300858E1,7.408357912E-1,1.554846636E-1,-1.856368178E0,2.004773295E0
1.149297958E1,8.640044653E-1,-2.551555341E-1,-1.373343142E0,1.642461399E0
1.150295158E1,7.600093961E-1,-5.430218910E-1,-7.057817334E-1,1.170732639E0
1.151292358E1,4.710791749E-1,-8.260958699E-1,2.146904629E-1,9.749061340E-1
1.152289558E1,2.679603517E-1,-9.799797486E-1,9.550850818E-1,1.394399717E0
1.153286658E1,4.117702818E-1,-9.451937125E-1,9.470697185E-1,1.399959632E0
1.154283858E1,1.230707917E0,-7.060229310E-1,2.748027635E-1,1.445208260E0
1.155281058E1,2.336464929E0,-4.028556168E-1,-6.820136788E-1,2.467084042E0
1.156278258E1,2.969910758E0,-4.099361564E-1,-1.511508754E0,3.357540212E0
1.157275358E1,3.271172172E0,-6.377746685E-1,-2.255115834E0,4.024036696E0
1.158272558E1,3.655441244E0,-5.708987109E-1,-2.918346794E0,4.712210101E0
1.159269758E1,4.238450160E0,3.031878891E-1,-2.635016159E0,4.999969281E0
1.160266958E1,4.626164412E0,1.529771802E0,-1.774511252E0,5.185604026E0
1.161264058E1,4.194467989E0,1.370456810E0,-1.546998722E0,4.675993865E0
1.162261258E1,3.494875533E0,7.619956952E-1,-1.491496074E-1,3.580089110E0
1.163258458E1,3.031471413E0,7.548438196E-1,1.642565323E0,3.529536650E0
1.164255658E1,2.321769122E0,9.311412453E-1,2.321737839E0,3.412931653E0
1.165252758E1,1.732993682E0,1.622158832E0,1.627021669E0,2.877823117E0
1.166249958E1,1.361948673E0,2.012116807E0,7.145662978E-1,2.532611937E0
1.167247158E1,1.281824276E0,2.219270647E0,6.513032252E-1,2.644320626E0
1.168244358E1,1.022520143E0,2.465484912E0,5.060095641E-1,2.716654003E0
1.169241458E1,3.033044314E-1,2.380561706E0,7.541461006E-1,2.515512662E0
1.170238658E1,-7.134041637E-1,1.976268405E0,1.087314601E0,2.365763165E0
1.171235858E1,-1.611769207E0,1.551863752E0,1.148261007E0,2.514872645E0
1.172233058E1,-2.356574088E0,1.116098397E0,9.917158413E-1,2.789734284E0
1.173230158E1,-2.903700981E0,6.923741410E-1,7.304251161E-1,3.073171356E0
1.174227358E1,-3.280904278E0,2.045798779E-1,6.075569889E-1,3.342949491E0
1.175224558E1,-3.465708452E0,-2.920034995E-1,6.797318029E-1,3.543788431E0
1.176221758E1,-3.443734615E0,-7.304835883E-1,8.935694495E-1,3.631994044E0
1.177218858E1,-3.205518465E0,-1.184101369E0,1.198090102E0,3.621168951E0
1.178216058E1,-2.727283468E0,-1.496067574E0,1.586135598E0,3.491721557E0
1.179213258E1,-2.019923571E0,-1.549728787E0,2.110690776E0,3.307078182E0
1.180210458E1,-1.175186266E0,-1.257639754E0,2.594148214E0,3.113249985E0
1.181207558E1,-3.995098400E-1,-7.143460040E-1,2.853755234E0,2.968807380E0
1.182204758E1,6.600395501E-2,-1.627334568E-1,2.719563389E0,2.725227280E0
1.183201958E1,2.782087666E-1,2.881988076E-1,2.318790258E0,2.353135553E0
1.184199158E1,4.287353933E-1,7.900474200E-1,1.734653122E0,1.953717077E0
1.185196258E1,5.576413554E-1,1.382305169E0,1.135926306E0,1.874049101E0
1.186193458E1,6.061486870E-1,1.982180378E0,4.583068094E-1,2.122851953E0
1.187190658E1,4.817982906E-1,2.395446963E0,-3.282316965E-1,2.465366462E0
1.188187858E1,2.408205003E-1,2.501155559E0,-9.163396767E-1,2.674593809E0
1.189184958E1,-1.773729479E-1,2.185727218E0,-1.032330016E0,2.423751203E0
1.190182158E1,-6.936166012E-1,1.589458133E0,-8.254818392E-1,1.920651299E0
1.191179358E1,-1.088875515E0,1.156770679E0,-7.137392092E-1,1.741606141E0
1.192176558E1,-1.385254505E0,8.571708244E-1,-6.329263034E-1,1.747646294E0
1.193173658E1,-1.605406267E0,5.463040793E-1,-6.413483405E-1,1.813037540E0
1.194170858E1,-1.721056591E0,2.639065685E-1,-6.669936436E-1,1.864554367E0
1.195168058E1,-1.710328120E0,-4.053618796E-3,-6.962963802E-1,1.846636770E0
1.196165258E1,-1.616927621E0,-2.927714399E-1,-7.186210495E-1,1.793484391E0
1.197162358E1,-1.495382718E0,-6.377167810E-1,-7.197510239E-1,1.777890240E0
1.198159558E1,-1.333166923E0,-9.633369648E-1,-6.781562707E-1,1.779114409E0
1.199156758E1,-1.117106457E0,-1.208218941E0,-5.645504254E-1,1.739665781E0
1.200153958E1,-8.983042324E-1,-1.349826079E0,-4.217812997E-1,1.675374705E0
1.201151058E1,-6.467388886E-1,-1.347474036E0,-3.673630178E-1,1.539127368E0
1.202148258E1,-3.804900169E-1,-1.193193643E0,-4.746088466E-1,1.339304775E0
1.203145458E1,-2.049940252E-1,-9.475893167E-1,-7.139833304E-1,1.204043296E0
1.204142658E1,-1.434567583E-1,-5.624239393E-1,-9.535838091E-1,1.116343410E0
1.205139758E1,-1.437485343E-1,-1.241024379E-1,-1.198018473E0,1.212977048E0
1.206136958E1,-1.555359364E-1,3.117665950E-1,-1.366981079E0,1.410683206E0
1.207134158E1,-1.047049212E-1,7.100129248E-1,-1.449640535E0,1.617571994E0
1.208131358E1,-1.455781281E-1,9.248030097E-1,-1.398668894E0,1.683071084E0
1.209128458E1,-2.924952686E-1,7.608989038E-1,-1.036631521E0,1.318759089E0
1.210125658E1,-4.184928256E-1,3.999721355E-1,-6.740424621E-1,8.885084102E-1
1.211122858E1,-4.589865482E-1,-1.193706152E-1,-5.035227433E-1,6.917030781E-1
1.212120058E1,-3.674817163E-1,-7.427943892E-1,-2.319415033E-1,8.605714249E-1
1.213117158E1,-7.704057455E-2,-1.274490260E0,-7.091356963E-2,1.278784347E0
1.214114358E1,3.681149697E-1,-1.456317324E0,-1.017427218E-1,1.505563138E0
1.215111558E1,9.661512297E-1,-1.253924433E0,-3.781423599E-1,1.627503096E0
1.216108758E1,1.599672487E0,-9.165157510E-1,-7.814789101E-1,2.002414162E0
1.217105858E1,2.154900697E0,-6.901090758E-1,-1.106643450E0,2.518830537E0
1.218103058E1,2.510824222E0,-6.199019229E-1,-1.345061329E0,2.915082614E0
1.219100233E1,2.628356765E0,-6.935405143E-1,-1.544800754E0,3.126606323E0
1.220097433E1,2.524638854E0,-9.039925499E-1,-1.529523149E0,3.087141871E0
1.221094533E1,2.363496607E0,-1.268077180E0,-7.135474205E-1,2.775479394E0
1.222091733E1,2.771117120E0,-1.087086852E0,-2.089195535E-1,2.984040096E0
1.223088933E1,3.488262917E0,-3.342796909E-1,-6.846797168E-1,3.570505203E0
1.224086133E1,3.988418541E0,1.650259674E-1,-7.616530484E-1,4.063844411E0
1.225083233E1,4.060524650E0,-2.198877606E-1,1.852924168E-2,4.066516248E0
1.226080433E1,3.887969223E0,-3.765306479E-1,4.658564419E-1,3.933840647E0
1.227077633E1,3.723091190E0,-5.780701747E-2,5.434472394E-1,3.762988781E0
1.228074833E1,3.356730385E0,3.779949004E-2,8.436441681E-1,3.461329682E0
1.229071933E1,2.609564399E0,-2.344467428E-1,1.577619714E0,3.058377934E0
1.230069133E1,1.737276767E0,-2.377895595E-1,2.173691894E0,2.792778346E0
1.231066333E1,5.611912000E-1,6.056831025E-2,2.371284806E0,2.437538864E0
1.232063533E1,-7.189888394E-1,4.883346737E-1,2.383025138E0,2.536577322E0
1.233060633E1,-1.855832573E0,9.797088032E-1,2.247780502E0,3.075135942E0
1.234057833E1,-2.840569763E0,1.492088690E0,1.935940597E0,3.747403265E0
1.235055033E1,-3.591158125E0,2.017215871E0,1.736243857E0,4.469912670E0
1.236052233E1,-4.105113178E0,2.590168892E0,1.761372851E0,5.163657949E0
1.237049333E1,-4.334062076E0,3.191622265E0,1.937916664E0,5.720670219E0
1.238046533E1,-4.388952228E0,3.761592182E0,1.960513228E0,6.103776661E0
1.239043733E1,-4.340912674E0,4.153968419E0,1.655400253E0,6.232120543E0
1.240040933E1,-4.182720348E0,4.237517529E0,1.609739639E0,6.167898023E0
1.241038033E1,-3.801132224E0,3.626185870E0,2.038169807E0,5.634888314E0
1.242035233E1,-3.008835087E0,2.489429260E0,2.705976799E0,4.751069044E0
1.243032433E1,-1.961055558E0,1.085256235E0,3.046942854E0,3.782509848E0
1.244029533E1,-9.378431046E-1,-5.570981856E-1,2.579118239E0,2.800314084E0
1.245026733E1,-1.027250540E-1,-2.132991180E0,1.606389769E0,2.672207308E0
1.246023933E1,6.308806551E-1,-3.381174086E0,4.466787440E-1,3.468410371E0
1.247021133E1,1.368066614E0,-4.009988042E0,-1.044002228E0,4.363662569E0
1.248018233E1,2.156425651E0,-3.842804745E0,-2.795330732E0,5.218351636E0
1.249015433E1,3.067200240E0,-2.433927343E0,-3.918909180E0,5.539816674E0
1.250012633E1,3.326599098E0,-9.844068948E-1,-4.253956099E0,5.489213148E0
1.251009833E1,2.092717313E0,-4.415548654E-1,-3.288771999E0,3.923067385E0
1.252006933E1,3.982263762E-1,-8.970399912E-2,-2.292880076E0,2.328933253E0
1.253004133E1,-8.337334299E-1,3.818186505E-1,-2.086807532E0,2.279399611E0
1.254001333E1,-1.733660849E0,8.349516242E-1,-1.849884201E0,2.669231296E0
1.254998533E1,-2.333811463E0,1.316871318E0,-1.602059906E0,3.122086154E0
1.255995633E1,-2.661843184E0,1.759995832E0,-1.453968644E0,3.506710607E0
1.256992833E1,-2.679921021E0,2.141922363E0,-1.313117113E0,3.673429547E0
1.257990033E1,-2.474115402E0,2.398887903E0,-1.229922929E0,3.659046406E0
1.258987233E1,-2.187070323E0,2.446573555E0,-1.157614213E0,3.479808820E0
1.259984333E1,-1.797007830E0,2.390850613E0,-1.011493464E0,3.157296758E0
1.260981533E1,-1.373754786E0,2.216206268E0,-9.738891426E-1,2.783385078E0
1.261978733E1,-8.906373632E-1,1.934530833E0,-1.154334510E0,2.422422882E0
1.262975933E1,-4.217666817E-1,1.569972140E0,-1.461174168E0,2.185801822E0
1.263973033E1,-2.050343710E-1,1.078364268E0,-1.720166353E0,2.040558960E0
1.264970233E1,-1.770840955E-1,6.678087455E-1,-1.719832477E0,1.853416048E0
1.265967433E1,-2.097589213E-1,4.392391488E-1,-1.396869999E0,1.479248332E0
1.266964633E1,-2.543211365E-1,3.825486023E-1,-1.005642740E0,1.105594859E0
1.267961733E1,-3.057093912E-1,4.095985894E-1,-7.943617880E-1,9.445845047E-1
1.268958933E1,-2.280776632E-1,3.921598168E-1,-4.497195885E-1,6.387929638E-1
1.269956133E1,6.099639952E-2,3.559173490E-1,3.713215828E-2,3.630103542E-1
1.270953233E1,5.354166734E-1,3.304540039E-1,2.958480620E-1,6.952675303E-1
1.271950433E1,1.209198350E0,3.006279416E-1,2.549693003E-1,1.271828272E0
1.272947633E1,1.875293861E0,1.229217389E-1,-2.553481999E-1,1.896586281E0
1.273944833E1,2.508029253E0,-1.100282812E-1,-1.066900071E0,2.727744988E0
1.274941933E1,3.018974744E0,-3.939154799E-1,-1.885095695E0,3.580916599E0
1.275939133E1,3.670211896E0,-2.236201297E-1,-1.885899687E0,4.132442250E0
1.276936333E1,4.558505110E0,9.167920319E-1,-8.344019128E-1,4.724055781E0
1.277933533E1,4.807730398E0,1.522451819E0,-9.767952088E-1,5.136755786E0
1.278930633E1,4.586802710E0,1.088162740E0,-1.044485355E0,4.828437315E0
1.279927833E1,4.259024758E0,1.061822641E0,3.449230121E-1,4.402923017E0
1.280925033E1,3.483067666E0,1.540091699E0,1.441599152E0,4.072081890E0
1.281922233E1,2.446313646E0,2.361628129E0,1.622113809E0,3.767358635E0
1.282919333E1,1.595917405E0,3.070448076E0,1.514893415E0,3.777499942E0
1.283916533E1,1.243604536E0,3.320995712E0,1.630641096E0,3.903146826E0
1.284913733E1,1.427914036E0,3.526501368E0,1.891371658E0,4.248815969E0
1.285910933E1,1.247301146E0,3.317744367E0,1.687398556E0,3.925621189E0
1.286908033E1,4.841272366E-1,2.454624878E0,1.469552936E0,2.901576865E0
1.287905233E1,-4.684818417E-1,1.555685638E0,1.338650734E0,2.105141047E0
1.288902433E1,-1.463359857E0,8.800704212E-1,1.038642378E0,1.998680567E0
1.289899533E1,-2.425141463E0,3.488216066E-1,6.997781047E-1,2.548073198E0
1.290896733E1,-3.100867923E0,-9.634336632E-2,5.652731413E-1,3.153442190E0
1.291893933E1,-3.465861649E0,-6.119032974E-1,6.735971966E-1,3.583344220E0
1.292891133E1,-3.535417203E0,-1.042020095E0,8.683509931E-1,3.786689071E0
1.293888233E1,-3.303185678E0,-1.385427728E0,1.218554479E0,3.783559254E0
1.294885433E1,-2.867498530E0,-1.543739046E0,1.486633530E0,3.579910238E0
1.295882633E1,-2.294365561E0,-1.574633394E0,1.850258130E0,3.341711957E0
1.296879833E1,-1.615623692E0,-1.375263660E0,2.286384112E0,3.119157315E0
1.297876933E1,-1.044936029E0,-1.051126988E0,2.612551156E0,3.003694857E0
1.298874133E1,-4.976383978E-1,-6.515490275E-1,2.770306111E0,2.889075295E0
1.299871333E1,-4.210463047E-2,-1.107158224E-1,2.672961665E0,2.675584956E0
1.300868533E1,2.329717827E-1,4.705391480E-1,2.355395290E0,2.413207391E0
1.301865633E1,2.603607255E-1,1.014682535E0,1.861416372E0,2.135939902E0
1.302862833E1,1.618854278E-1,1.468948334E0,1.245407525E0,1.932629298E0
1.303860033E1,3.979030252E-2,1.818014098E0,4.489530185E-1,1.873050277E0
1.304857133E1,-8.751936972E-2,1.946206846E0,-5.196563807E-1,2.016289533E0
1.305854333E1,-2.891155779E-1,1.824602302E0,-1.389095541E0,2.311351942E0
1.306851533E1,-5.749116915E-1,1.549479111E0,-1.635743376E0,2.325309734E0
1.307848733E1,-9.471045095E-1,1.154580093E0,-1.303712744E0,1.982354424E0
1.308845833E1,-1.331020410E0,7.070551108E-1,-7.502468848E-1,1.683571397E0
1.309843033E1,-1.667099070E0,2.834880531E-1,-4.308997402E-1,1.745067154E0
1.310840233E1,-1.886175529E0,-1.179678316E-1,-2.596181291E-1,1.907610052E0
1.311837433E1,-1.969443973E0,-4.428905888E-1,-1.675306222E-1,2.025568598E0
1.312834533E1,-1.977038922E0,-7.265269967E-1,-1.425112635E-1,2.111121464E0
1.313831733E1,-1.836408123E0,-1.002457176E0,-8.069449961E-2,2.093759009E0
1.314828933E1,-1.607878470E0,-1.249661521E0,-5.626483262E-3,2.036408296E0
1.315826033E1,-1.234041415E0,-1.425923498E0,1.239513239E-1,1.889835962E0
1.316823233E1,-8.134389138E-1,-1.520015430E0,2.308977753E-1,1.739380222E0
1.317820433E1,-3.773442149E-1,-1.452694536E0,1.747861397E-1,1.511046083E0
1.318817633E1,-4.186080158E-2,-1.217816049E0,-3.561889887E-2,1.219055767E0
1.319814733E1,1.674940771E-1,-9.230751575E-1,-4.099526748E-1,1.023808189E0
1.320811933E1,8.333159387E-2,-5.927428122E-1,-8.165975797E-1,1.012482001E0
1.321809133E1,-5.086317480E-2,-1.308568856E-1,-1.186005369E0,1.194286114E0
1.322806333E1,-1.071771240E-1,3.507744304E-1,-1.525409340E0,1.568886004E0
1.323803433E1,-1.228043926E-1,7.715012944E-1,-1.662116073E0,1.836552478E0
1.324800633E1,-1.502301729E-1,1.099553335E0,-1.506389225E0,1.871041191E0
1.325797833E1,-2.425039136E-1,1.099314111E0,-1.255372642E0,1.686196944E0
1.326795033E1,-3.711520135E-1,8.417490124E-1,-1.096012627E0,1.430922393E0
1.327792133E1,-4.986593217E-1,3.347416209E-1,-9.121390370E-1,1.092112950E0
1.328789333E1,-4.829162782E-1,-3.219583650E-1,-5.343498489E-1,7.889201998E-1
1.329786533E1,-3.534548306E-1,-9.291577967E-1,-1.685065225E-1,1.008295084E0
1.330783633E1,-9.629428625E-2,-1.393314891E0,-3.883486748E-2,1.397178272E0
1.331780833E1,2.832823956E-1,-1.548291688E0,-1.260589528E-1,1.579033542E0
1.332778033E1,7.243402112E-1,-1.410058978E0,-3.076041815E-1,1.614792679E0
1.333775233E1,1.187591134E0,-1.168252345E0,-5.656745526E-1,1.759310644E0
1.334772333E1,1.513303850E0,-1.027094493E0,-8.181394905E-1,2.003587748E0
1.335769533E1,1.750617190E0,-9.704389930E-1,-1.091721648E0,2.279971171E0
1.336766733E1,1.886231663E0,-9.204085348E-1,-1.445720854E0,2.548554599E0
1.337763933E1,1.904421181E0,-9.217489359E-1,-1.521976440E0,2.606310308E0
1.338761033E1,1.959252276E0,-9.800228718E-1,-6.878866223E-1,2.296149454E0
1.339758233E1,2.372773215E0,-4.773018914E-1,-4.648536444E-2,2.420750031E0
1.340755433E1,2.889730813E0,3.585289713E-1,-2.786323974E-1,2.925187722E0
1.341752533E1,3.289941149E0,7.718193830E-1,-8.659112424E-2,3.380372161E0
1.342749733E1,3.285342899E0,4.078918967E-1,7.294936547E-1,3.389987427E0
1.343746933E1,3.175603525E0,1.142668730E-1,1.262906487E0,3.419422095E0
1.344744133E1,3.314960800E0,3.271973240E-1,1.590080422E0,3.691121638E0
1.345741233E1,3.302957051E0,5.900126011E-1,2.018408265E0,3.915560251E0
1.346738433E1,2.768205206E0,5.129502091E-1,2.558114163E0,3.803948745E0
1.347735633E1,1.868704634E0,4.294603749E-1,2.947734607E0,3.516480135E0
1.348732833E1,6.059627455E-1,4.306467750E-1,3.064354985E0,3.153239440E0
1.349729933E1,-8.361038911E-1,5.529150875E-1,2.909432421E0,3.077268566E0
1.350727133E1,-2.039060338E0,8.931629218E-1,2.540967788E0,3.378168789E0
1.351724333E1,-3.019041987E0,1.289073947E0,2.056493227E0,3.873692109E0
1.352721433E1,-3.770831952E0,1.685475407E0,1.728399232E0,4.477428376E0
1.353718633E1,-4.248194545E0,2.187530791E0,1.657718674E0,5.057714806E0
1.354715833E1,-4.497493508E0,2.667069133E0,1.722212001E0,5.505153930E0
1.355713033E1,-4.529716929E0,3.033793050E0,1.815026317E0,5.746003503E0
1.356710133E1,-4.380285485E0,3.242227285E0,1.701830361E0,5.709217572E0
1.357707333E1,-3.993917263E0,3.089075843E0,1.758758853E0,5.346680967E0
1.358704533E1,-3.181593413E0,2.543406954E0,1.965120542E0,4.522516371E0
1.359701733E1,-2.008572371E0,1.717084285E0,2.209438847E0,3.444468236E0
1.360698833E1,-7.059004319E-1,5.993127437E-1,2.177591987E0,2.366300498E0
1.361696033E1,5.536009294E-1,-7.686512884E-1,1.531440158E0,1.800724230E0
1.362693233E1,1.681169810E0,-2.115907516E0,-3.580998588E-1,2.726101989E0
1.363690333E1,2.890410259E0,-2.944755451E0,-2.559870375E0,4.855820473E0
1.364687533E1,3.742395773E0,-2.809101510E0,-3.442736496E0,5.809389985E0
1.365684733E1,3.789590405E0,-1.922903645E0,-3.391763978E0,5.437151529E0
1.366681933E1,2.816033676E0,-1.170280013E0,-2.820552697E0,4.153928080E0
1.367679033E1,1.606276917E0,-5.889937968E-1,-1.937760543E0,2.584947804E0
1.368676233E1,4.789758396E-1,3.769657904E-2,-1.487685151E0,1.563344491E0
1.369673433E1,-6.208351386E-1,5.904039991E-1,-1.269560911E0,1.531599836E0
1.370670633E1,-1.416541786E0,1.113622906E0,-1.094775648E0,2.108383345E0
1.371667733E1,-1.936320081E0,1.542180763E0,-1.089757276E0,2.704667795E0
1.372664933E1,-2.224080275E0,1.864524752E0,-1.135210606E0,3.116358249E0
1.373662133E1,-2.400393707E0,2.095463019E0,-1.148650432E0,3.387071453E0
1.374659233E1,-2.423311869E0,2.254665890E0,-1.025405159E0,3.465171631E0
1.375656433E1,-2.328916758E0,2.297668215E0,-8.677507764E-1,3.384689631E0
1.376653633E1,-2.093576269E0,2.200909806E0,-8.290731990E-1,3.148718459E0
1.377650833E1,-1.685387406E0,2.046665227E0,-1.043521587E0,2.849264214E0
1.378647933E1,-1.235223137E0,1.796518418E0,-1.396351351E0,2.589025245E0
1.379645133E1,-7.379765028E-1,1.550091607E0,-1.630965908E0,2.368004034E0
1.380642333E1,-3.607445544E-1,1.323114244E0,-1.789821017E0,2.254823099E0
1.381639433E1,-1.982211953E-1,1.136640178E0,-1.682572849E0,2.040170073E0
1.382636633E1,-2.741104531E-1,1.023928518E0,-1.434393628E0,1.783550176E0
1.383633833E1,-5.347840047E-1,9.935936015E-1,-1.219197673E0,1.661223989E0
1.384631033E1,-7.871545100E-1,1.005292272E0,-9.599841714E-1,1.597433687E0
1.385628133E1,-9.374384773E-1,9.048045820E-1,-7.541613033E-1,1.505397456E0
1.386625333E1,-8.945555824E-1,6.207650451E-1,-4.468562070E-1,1.176970433E0
1.387622533E1,-6.291943181E-1,2.486173969E-1,-2.299008250E-2,6.769229231E-1
1.388619733E1,-1.340474188E-2,-1.949651550E-1,5.438796410E-1,5.779240112E-1
1.389616833E1,9.292781031E-1,-6.559649909E-1,7.712740570E-1,1.374304018E0
1.390614033E1,1.960407102E0,-1.194505174E0,2.404085639E-1,2.308210322E0
1.391611233E1,2.902499378E0,-1.720556362E0,-5.351824924E-1,3.416319238E0
1.392608333E1,3.708224645E0,-1.893312348E0,-1.090022739E0,4.303918126E0
1.393605533E1,4.287307740E0,-1.415222216E0,-7.447616118E-1,4.575864010E0
1.394602733E1,4.691482489E0,-3.134155098E-1,-2.276476005E-1,4.707447360E0
1.395599933E1,4.775846116E0,5.005807898E-1,-7.537356260E-1,4.860802881E0
1.396597033E1,5.063001707E0,1.555614741E0,-5.213392094E-1,5.322191098E0
1.397594233E1,5.056288519E0,3.285911833E0,7.830494723E-1,6.080825325E0
1.398591433E1,4.393413069E0,5.009237729E0,1.689112083E0,6.873691923E0
1.399588533E1,3.436785200E0,6.281048648E0,2.255296220E0,7.506625452E0
1.400585733E1,2.385070494E0,6.948696595E0,2.412954988E0,7.732741908E0
1.401582933E1,1.189629473E0,6.943514793E0,2.020197513E0,7.328629746E0
1.402580133E1,-8.265974879E-2,6.416514017E0,1.244008286E0,6.536515997E0
1.403577233E1,-1.196499951E0,5.571368576E0,6.499662593E-1,5.735347948E0
1.404574433E1,-2.267350255E0,4.359936005E0,3.117481032E-1,4.924135054E0
1.405571633E1,-3.173882105E0,2.954738110E0,2.645467472E-1,4.344420548E0
1.406568833E1,-3.682571155E0,1.680955071E0,4.953264087E-1,4.078270285E0
1.407565933E1,-3.833008904E0,5.573694599E-1,7.850840110E-1,3.952084878E0
1.408563133E1,-3.610358042E0,-3.385688429E-1,1.166317501E0,3.809148273E0
1.409560333E1,-3.043225486E0,-9.231391845E-1,1.683106700E0,3.598090532E0
1.410557433E1,-2.253336233E0,-1.073459112E0,2.256051388E0,3.364462292E0
1.411554633E1,-1.418393015E0,-1.115876496E0,2.855036066E0,3.377610107E0
1.412551833E1,-7.039416146E-1,-1.058153367E0,3.404560317E0,3.634040905E0
1.413549033E1,-2.636515385E-1,-7.134737456E-1,3.556829414E0,3.637250665E0
1.414546133E1,-2.248552626E-1,-1.507332892E-1,3.319173427E0,3.330194086E0
1.415543333E1,-5.041691530E-1,4.797005654E-1,3.061402726E0,3.139504072E0
1.416540533E1,-7.998529083E-1,1.167785737E0,2.694162207E0,3.043353118E0
1.417537633E1,-9.909241283E-1,1.763707352E0,2.246502300E0,3.023138574E0
1.418534850E1,-1.003000968E0,2.169214973E0,1.913080615E0,3.061271301E0
1.419532050E1,-8.849836904E-1,2.304216511E0,1.686826991E0,2.989647999E0
1.420529250E1,-7.385202938E-1,2.231609296E0,1.445363297E0,2.759450549E0
1.421526350E1,-7.549287504E-1,2.040078192E0,1.015525119E0,2.400651519E0
1.422523550E1,-9.048092598E-1,1.832211576E0,4.937385973E-1,2.102250427E0
1.423520750E1,-1.070111800E0,1.753062934E0,3.133847389E-1,2.077637820E0
1.424517850E1,-1.277478041E0,1.726193224E0,3.884507087E-1,2.182335250E0
1.425515050E1,-1.535006375E0,1.557273742E0,4.781434885E-1,2.238295618E0
1.426512250E1,-1.637475906E0,1.387121374E0,5.941425991E-1,2.226755146E0
1.427509450E1,-1.560286227E0,1.188052771E0,8.309963483E-1,2.129910193E0
1.428506550E1,-1.296924126E0,1.129305723E0,1.007177634E0,1.992925084E0
1.429503750E1,-1.122314572E0,9.034427655E-1,1.117510500E0,1.823356396E0
1.430500950E1,-1.041000853E0,4.399104457E-1,1.152795523E0,1.614354822E0
1.431498050E1,-1.038239213E0,-3.775548609E-1,1.217747564E0,1.644201163E0
1.432495250E1,-9.425337410E-1,-1.278799658E0,1.162870275E0,1.968747240E0
1.433492450E1,-5.647463071E-1,-1.789889722E0,1.153933099E0,2.203226090E0
1.434489650E1,-1.136219251E-1,-2.129802693E0,1.041803091E0,2.373672920E0
1.435486750E1,4.249996072E-1,-2.360627524E0,5.884596902E-1,2.469710870E0
1.436483950E1,8.526439101E-1,-2.387086175E0,-1.833102107E-3,2.534794944E0
1.437481150E1,1.053296962E0,-2.119518172E0,-7.847784939E-1,2.493525427E0
1.438478250E1,9.935220462E-1,-1.685489733E0,-1.663465025E0,2.568088313E0
1.439475450E1,7.711465877E-1,-1.103740161E0,-2.343863119E0,2.703073014E0
1.440472650E1,4.964917588E-1,-5.494312434E-1,-2.737152398E0,2.835556737E0
1.441469850E1,2.458286405E-1,-5.116913949E-2,-2.909259636E0,2.920075621E0
1.442466950E1,4.266187012E-2,2.775016738E-1,-2.839335708E0,2.853183218E0
1.443464150E1,-1.584484345E-1,2.801903149E-1,-2.504515076E0,2.525115500E0
1.444461350E1,-1.870658773E-1,1.260794729E-1,-2.087323256E0,2.099478043E0
1.445458450E1,-4.098664284E-2,-8.488920076E-2,-1.869981666E0,1.872356139E0
1.446455650E1,8.806140661E-2,-4.947091620E-1,-1.643956960E0,1.719036489E0
1.447452850E1,2.224286681E-1,-9.439272056E-1,-1.124330985E0,1.484787273E0
1.448450050E1,5.065776211E-1,-1.216858202E0,-7.007972744E-1,1.492809965E0
1.449447150E1,8.792300302E-1,-1.224637046E0,-4.669451934E-1,1.578232921E0
1.450444350E1,1.243440814E0,-9.699690961E-1,-4.354436114E-1,1.636030637E0
1.451441550E1,1.523632371E0,-6.090097296E-1,-5.331888843E-1,1.725293842E0
1.452438650E1,1.636426331E0,-2.625670993E-1,-6.437752274E-1,1.777998639E0
1.453435850E1,1.660496394E0,-7.612435240E-2,-6.524747148E-1,1.785711747E0
1.454433050E1,1.581424497E0,-7.019582391E-4,-6.528249630E-1,1.710872399E0
1.455430250E1,1.355173504E0,-9.192389455E-2,-5.014347026E-1,1.447888804E0
1.456427350E1,1.266669463E0,-2.063485693E-1,-1.560709566E-1,1.292822263E0
1.457424550E1,1.783196121E0,2.055917934E-1,-1.383191022E-1,1.800330127E0
1.458421750E1,2.329271684E0,1.015110113E0,-4.907930624E-1,2.587823980E0
1.459418850E1,2.507343959E0,1.246947389E0,-5.660531598E-1,2.856933269E0
1.460416050E1,2.486665866E0,8.062673038E-1,-2.724451661E-1,2.628269480E0
1.461413250E1,2.777805750E0,4.701985842E-1,9.107155323E-2,2.818791500E0
1.462410450E1,3.175471378E0,2.460134856E-1,6.334183466E-1,3.247361992E0
1.463407550E1,3.519650770E0,2.036669996E-1,1.169629657E0,3.714492607E0
1.464404750E1,3.297772325E0,1.231662621E-1,1.560737633E0,3.650530673E0
1.465401950E1,2.172357559E0,-8.708320398E-2,1.719075262E0,2.771631398E0
1.466399050E1,6.128408253E-1,-3.940539127E-1,1.964621190E0,2.095373185E0
1.467396250E1,-7.369988483E-1,-4.993366485E-1,2.263843095E0,2.432589146E0
1.468393450E1,-1.717172871E0,-2.332155385E-1,2.318224540E0,2.894345724E0
1.469390550E1,-2.512193640E0,2.626085779E-1,1.985510952E0,3.212838915E0
1.470387750E1,-3.251427294E0,9.169108035E-1,1.577269173E0,3.728308318E0
1.471384950E1,-3.931494727E0,1.575721415E0,1.380401023E0,4.454778979E0
1.472382150E1,-4.521139648E0,2.128656346E0,1.351465784E0,5.176711439E0
1.473379250E1,-4.834700680E0,2.674035506E0,1.367856699E0,5.691733348E0
1.474376450E1,-4.891768336E0,3.140960819E0,1.308596046E0,5.958813298E0
1.475373650E1,-4.721023791E0,3.539688886E0,1.087489725E0,6.000008079E0
1.476370750E1,-4.191229216E0,3.593098816E0,1.179783347E0,5.645232518E0
1.477367950E1,-3.056253667E0,3.181192294E0,1.865655895E0,4.789712184E0
1.478365150E1,-1.818131481E0,2.312534760E0,2.429231590E0,3.815047210E0
1.479362350E1,-6.999146372E-1,1.052049751E0,2.433201849E0,2.741744047E0
1.480359450E1,2.016090721E-1,-5.134757276E-1,1.806875591E0,1.889206961E0
1.481356650E1,1.005428147E0,-2.066779210E0,1.156864600E0,2.573091091E0
1.482353850E1,1.801265187E0,-3.292549008E0,6.262739262E-1,3.804951284E0
1.483350950E1,2.323688178E0,-4.240851027E0,-9.202692980E-1,4.922523719E0
1.484348150E1,2.759485838E0,-4.571308466E0,-2.269959575E0,5.802097867E0
1.485345350E1,3.073475472E0,-3.531158383E0,-3.297256016E0,5.726013294E0
1.486342550E1,3.158546612E0,-1.760438466E0,-4.237215520E0,5.570417907E0
1.487339650E1,2.381815934E0,-6.867873457E-1,-4.254662150E0,4.924111495E0
1.488336850E1,1.128475783E0,-1.425367354E-1,-3.658467178E0,3.831208218E0
1.489334050E1,-1.709024191E-2,2.966242799E-1,-2.843388998E0,2.858870237E0
1.490331150E1,-8.522673494E-1,7.202883100E-1,-2.270187909E0,2.529610252E0
1.491328350E1,-1.409991150E0,1.113857452E0,-1.794616611E0,2.539567335E0
1.492325550E1,-1.758132032E0,1.423127505E0,-1.461821455E0,2.693184380E0
1.493322650E1,-2.015897178E0,1.606468998E0,-1.205104422E0,2.845498329E0
1.494319850E1,-2.194744209E0,1.736733269E0,-9.364947367E-1,2.951299202E0
1.495317050E1,-2.368147482E0,1.839311265E0,-7.051747924E-1,3.080334384E0
1.496314250E1,-2.467078863E0,1.841963855E0,-5.189824891E-1,3.122283104E0
1.497311350E1,-2.406268989E0,1.770884078E0,-4.826952535E-1,3.026409684E0
1.498308550E1,-2.113316469E0,1.694682579E0,-6.061074641E-1,2.775864153E0
1.499305750E1,-1.613669552E0,1.604068424E0,-9.701931176E-1,2.473507554E0
1.500302850E1,-1.034060792E0,1.408442223E0,-1.470693435E0,2.283841150E0
1.501300050E1,-4.672299528E-1,1.147846586E0,-1.845923297E0,2.223350721E0
1.502297250E1,-7.822989821E-3,8.034561087E-1,-2.011167658E0,2.165732732E0
1.503294450E1,3.816144365E-1,4.536274654E-1,-2.014133658E0,2.099557536E0
1.504291550E1,6.472627991E-1,1.229424234E-1,-1.741429460E0,1.861891655E0
1.505288750E1,7.860827154E-1,-2.049059333E-1,-1.076714769E0,1.348787296E0
1.506285950E1,8.057428086E-1,-4.940253302E-1,-1.867056888E-1,9.634010145E-1
1.507283050E1,8.038945037E-1,-5.770736995E-1,5.093471548E-1,1.112966734E0
1.508280250E1,7.926193178E-1,-7.821408150E-1,6.594103897E-1,1.294145162E0
1.509277450E1,1.077764636E0,-8.752067073E-1,3.598160166E-1,1.434235321E0
1.510274650E1,1.513462894E0,-8.977958170E-1,-3.270140138E-1,1.789845084E0
1.511271750E1,1.935190984E0,-8.206915078E-1,-1.026089868E0,2.339093652E0
1.512268950E1,2.328300462E0,-6.929942382E-1,-1.657172837E0,2.940653986E0
1.513266150E1,2.864831030E0,-4.000287439E-1,-2.305773479E0,3.699171686E0
1.514263250E1,3.357809197E0,1.741169076E-1,-2.677593829E0,4.298221494E0
1.515260450E1,3.729116746E0,1.283965088E0,-2.082476791E0,4.459998615E0
1.516257650E1,3.695107001E0,2.559615144E0,-1.205395321E0,4.653861119E0
1.517254750E1,2.964648263E0,2.644423159E0,-1.094101757E0,4.120579064E0
1.518251950E1,2.203409198E0,2.075154908E0,-2.635065275E-1,3.038209288E0
1.519249137E1,1.926934131E0,1.949350309E0,1.339133422E0,3.050626181E0
1.520246337E1,1.650543264E0,1.989648881E0,2.467120378E0,3.573468720E0
1.521243437E1,1.229473570E0,2.110467705E0,2.659862148E0,3.611169594E0
1.522240637E1,9.458701622E-1,2.126401806E0,1.921875412E0,3.018254480E0
1.523237837E1,1.076802185E0,2.228335440E0,1.197190215E0,2.749226471E0
1.524234937E1,1.383465257E0,2.467142305E0,1.242186294E0,3.089303167E0
1.525232137E1,1.251764325E0,2.536937010E0,1.503933979E0,3.203869650E0
1.526229337E1,4.563354206E-1,2.261857673E0,1.559552694E0,2.785039812E0
1.527226438E1,-7.770423353E-1,1.817256737E0,1.079794205E0,2.252148389E0
1.528223637E1,-1.832090539E0,1.370192077E0,5.298790678E-1,2.348351315E0
1.529220838E1,-2.598872180E0,9.002930897E-1,2.306703186E-1,2.760049465E0
1.530218037E1,-3.145265831E0,4.583709826E-1,1.341026750E-1,3.181318066E0
1.531215137E1,-3.527580764E0,3.504399423E-2,1.935983866E-1,3.533063043E0
1.532212337E1,-3.702589683E0,-4.915321505E-1,4.493287021E-1,3.762003522E0
1.533209537E1,-3.583816946E0,-1.038750625E0,7.854927313E-1,3.813101833E0
1.534206637E1,-3.114111866E0,-1.522175976E0,1.179990923E0,3.661569472E0
1.535203837E1,-2.317286062E0,-1.794510922E0,1.762707185E0,3.420119993E0
1.536201037E1,-1.302666092E0,-1.784360594E0,2.373971309E0,3.242934081E0
1.537198237E1,-2.450287414E-1,-1.555794396E0,2.626150318E0,3.062221543E0
1.538195338E1,6.324652505E-1,-1.129981295E0,2.325782651E0,2.661979519E0
1.539192537E1,1.195494815E0,-6.847528801E-1,1.836623008E0,2.295926487E0
1.540189738E1,1.515984798E0,-1.990227390E-1,1.353217025E0,2.041816906E0
1.541186837E1,1.672881382E0,3.585233434E-1,9.254768282E-1,1.945142273E0
1.542184037E1,1.703347714E0,8.898086666E-1,6.625901055E-1,2.032776069E0
1.543181237E1,1.423915710E0,1.292242407E0,5.055359396E-1,1.988213513E0
1.544178337E1,8.268647057E-1,1.390957002E0,3.462493068E-1,1.654797633E0
1.545175537E1,6.670211256E-2,1.246256687E0,1.405834365E-1,1.255933360E0
1.546172737E1,-5.736826068E-1,1.095881503E0,-7.622401088E-2,1.239305492E0
1.547169837E1,-1.086954120E0,9.006040885E-1,-2.902785891E-1,1.441117151E0
1.548167037E1,-1.443928975E0,6.731522235E-1,-4.930126655E-1,1.667670917E0
1.549164237E1,-1.644179154E0,4.385123764E-1,-5.775651580E-1,1.796997414E0
1.550161437E1,-1.768414360E0,1.337839287E-1,-5.927632409E-1,1.869907952E0
1.551158538E1,-1.742212987E0,-6.806531323E-2,-6.273553687E-1,1.852974295E0
1.552155737E1,-1.603914058E0,-3.522971185E-1,-6.674216598E-1,1.772598442E0
1.553152938E1,-1.474421620E0,-6.947277184E-1,-6.723631418E-1,1.763132981E0
1.554150037E1,-1.339166166E0,-1.123284260E0,-5.763863593E-1,1.840476782E0
1.555147237E1,-1.103063200E0,-1.460495306E0,-4.428572962E-1,1.883060686E0
1.556144437E1,-7.646941853E-1,-1.578222415E0,-3.625595301E-1,1.790807807E0
1.557141537E1,-3.955974680E-1,-1.552386347E0,-3.324291202E-1,1.636126476E0
1.558138737E1,-1.467002088E-1,-1.488475841E0,-4.813217425E-1,1.571226241E0
1.559135937E1,-2.648554802E-2,-1.367825563E0,-7.183120242E-1,1.545192680E0
1.560133137E1,-3.788703382E-2,-1.156028156E0,-9.462128091E-1,1.494374520E0
1.561130237E1,-7.725984514E-2,-8.141536628E-1,-1.127203429E0,1.392624444E0
1.562127437E1,-1.120513630E-1,-4.394963897E-1,-1.313362111E0,1.389472065E0
1.563124637E1,-2.740765393E-2,-2.389793582E-2,-1.489453642E0,1.489897460E0
1.564121737E1,1.012492168E-1,3.743859623E-1,-1.592866913E0,1.639402713E0
1.565118937E1,1.687623382E-1,5.900200563E-1,-1.597559304E0,1.711373753E0
1.566116137E1,2.134023213E-1,7.242804965E-1,-1.605898603E0,1.774551524E0
1.567113237E1,1.594272584E-1,6.686283790E-1,-1.424035285E0,1.581251863E0
1.568110437E1,9.878812373E-2,4.326726159E-1,-1.200019975E0,1.279457943E0
1.569107637E1,6.664071679E-2,3.169099521E-2,-9.314564833E-1,9.343749165E-1
1.570104837E1,6.682139575E-2,-5.059600455E-1,-4.992513523E-1,7.139415797E-1
1.571101937E1,1.718648708E-1,-1.013545690E0,-4.649442762E-2,1.029064688E0
1.572099137E1,3.626601022E-1,-1.304159178E0,1.007630208E-1,1.357389664E0
1.573096337E1,5.198414451E-1,-1.347465850E0,-3.774582356E-2,1.444757451E0
1.574093437E1,5.988835216E-1,-1.240349830E0,-3.319943798E-1,1.416809599E0
1.575090638E1,6.598810905E-1,-1.138353412E0,-5.516839197E-1,1.426760909E0
1.576087837E1,7.519852620E-1,-1.054617191E0,-7.679534233E-1,1.505806001E0
1.577084937E1,8.654446346E-1,-1.069879447E0,-9.327399471E-1,1.662420000E0
1.578082137E1,9.740022862E-1,-1.200459613E0,-5.775099018E-1,1.650242837E0
1.579079337E1,1.505156339E0,-9.395148236E-1,1.573687461E-1,1.781277247E0
1.580076537E1,2.258037395E0,-2.721061738E-1,9.856973022E-2,2.276508431E0
1.581073637E1,2.920119962E0,2.447144535E-1,-5.874171317E-2,2.930944617E0
1.582070837E1,3.358528989E0,2.120177372E-1,6.030514169E-1,3.418821362E0
1.583068037E1,3.796652087E0,1.156746267E-1,1.426581455E0,4.057472408E0
1.584065137E1,4.229811484E0,4.152768936E-1,1.578667535E0,4.533867143E0
1.585062337E1,4.315208314E0,7.898019831E-1,1.476221685E0,4.628611069E0
1.586059537E1,3.687799151E0,6.722714867E-1,1.682124368E0,4.108692483E0
1.587056637E1,2.481770577E0,4.515567105E-1,1.993552628E0,3.215173516E0
1.588053838E1,1.014494839E0,3.733218422E-1,2.243709962E0,2.490542787E0
1.589051037E1,-3.289859873E-1,2.818841802E-1,2.373168194E0,2.412388391E0
1.590048137E1,-1.447803925E0,2.267307205E-1,2.238120901E0,2.675206196E0
1.591045337E1,-2.370938358E0,2.993358896E-1,1.843170720E0,3.017984257E0
1.592042537E1,-3.111953659E0,5.384636940E-1,1.391357536E0,3.451097582E0
1.593039737E1,-3.703600082E0,9.061312421E-1,9.965918344E-1,3.940929164E0
1.594036837E1,-4.124233573E0,1.403498110E0,7.723110607E-1,4.424429216E0
1.595034037E1,-4.365418940E0,1.984990843E0,8.105448344E-1,4.863543368E0
1.596031237E1,-4.418754902E0,2.589992306E0,1.055074808E0,5.229401293E0
1.597028338E1,-4.367687659E0,3.071569279E0,1.228390958E0,5.479067227E0
1.598025537E1,-4.142661073E0,3.409376376E0,1.316181054E0,5.524293675E0
1.599022738E1,-3.779173005E0,3.359735270E0,1.414243246E0,5.250719345E0
1.600019837E1,-3.110590673E0,2.849360467E0,1.729439160E0,4.559121539E0
1.601017037E1,-2.103094366E0,2.058175178E0,2.210582562E0,3.680457341E0
1.602014237E1,-8.536016840E-1,9.040355270E-1,2.114088593E0,2.452608132E0
1.603011337E1,6.495309341E-1,-5.430942138E-1,7.696143249E-1,1.144180042E0
1.604008537E1,2.185144250E0,-2.027609736E0,-6.928041306E-1,3.060397719E0
1.605005737E1,3.464218581E0,-2.991436697E0,-1.814260039E0,4.923519410E0
1.606002937E1,4.233403428E0,-3.343170985E0,-2.891845166E0,6.120560863E0
1.607000037E1,4.197437789E0,-3.061355363E0,-2.650133550E0,5.832116982E0
1.607997237E1,3.388619930E0,-2.341319434E0,-1.647522007E0,4.436085040E0
1.608994437E1,2.422903149E0,-1.298638530E0,-1.142077284E0,2.976787231E0
1.609991538E1,1.296200826E0,-3.623587514E-1,-9.275063968E-1,1.634536191E0
1.610988737E1,8.884376407E-2,2.815513640E-1,-7.862300652E-1,8.398345673E-1
1.611985938E1,-1.034473021E0,7.047453144E-1,-8.601567051E-1,1.518772513E0
1.612983037E1,-1.851727243E0,1.078072638E0,-1.050041233E0,2.386151920E0
1.613980237E1,-2.443337998E0,1.352992200E0,-1.209842713E0,3.043716126E0
1.614977437E1,-2.706240508E0,1.578635813E0,-1.343085847E0,3.408769325E0
1.615974537E1,-2.707021111E0,1.752499409E0,-1.412556324E0,3.520587003E0
1.616971737E1,-2.483216593E0,1.831211556E0,-1.296021024E0,3.346546116E0
1.617968937E1,-2.288358716E0,1.773328945E0,-1.194311631E0,3.131718607E0
1.618966121E1,-2.015340523E0,1.752593549E0,-1.182423072E0,2.920839929E0
1.619963221E1,-1.655941998E0,1.773240652E0,-1.257754798E0,2.732850790E0
1.620960421E1,-1.244613765E0,1.784847814E0,-1.398604283E0,2.586665630E0
1.621957621E1,-8.378855377E-1,1.656468393E0,-1.597658122E0,2.449173572E0
1.622954721E1,-4.547677821E-1,1.387248844E0,-1.629082228E0,2.187505885E0
1.623951921E1,-1.824114937E-1,9.226604437E-1,-1.521072168E0,1.788361481E0
1.624949121E1,1.179266453E-2,3.496757386E-1,-1.303868279E0,1.349994326E0
1.625946221E1,1.815618932E-1,-2.907747619E-1,-9.343922241E-1,9.952906669E-1
1.626943421E1,1.974534559E-1,-8.618269622E-1,-4.045695819E-1,9.723220283E-1
1.627940621E1,1.764180976E-1,-1.221988695E0,-2.073451906E-2,1.234831825E0
1.628937721E1,2.832771331E-1,-1.289534707E0,2.875244044E-1,1.351227582E0
1.629934921E1,5.435793865E-1,-1.151585734E0,6.736692636E-1,1.440645178E0
1.630932121E1,8.814174736E-1,-7.645575066E-1,7.635403834E-1,1.394431375E0
1.631929321E1,1.143270409E0,-2.492790093E-1,4.305284420E-1,1.246820753E0
1.632926421E1,1.167577869E0,2.591950283E-1,-1.497851998E-1,1.205344660E0
